"success","trial_type","trial_index","time_elapsed","internal_node_id","rt","responses","partNum","view_history","time","stimulus","key_press","trial_status","epoch","choice","x-position","y-position","mice-times","nRecordings","block","reward","change_hue","target_size","location","outcome","response"
"true","fullscreen","0","2432","0.0-0.0","","","","","","","","","","","","","","","","","","","","",""
"","survey-text","1","25314","0.0-1.0","22879","{""Q0"":""adi_20241015_session2""}","""adi_20241015_session2""","","","","","","","","","","","","","","","","","",""
"","instructions","2","31307","0.0-2.0","5992","","","[{""page_index"":0,""viewing_time"":945},{""page_index"":1,""viewing_time"":1597},{""page_index"":2,""viewing_time"":734},{""page_index"":3,""viewing_time"":831},{""page_index"":4,""viewing_time"":1884}]","Tue Oct 15 2024 21:42:10 GMT-0400 (Eastern Daylight Time)","","","","","","","","","","","","","","","",""
"","html-keyboard-response","3","35328","0.0-3.0-0.0","4021","","","","","EASY BLOCK <br> To Start/Continue, press y <br> To end the session, press n","89","continue_flag","","","","","","","","","","","","",""
"","mousetracking","4","35636","0.0-4.0-0.0","306","","","","","<div style=""font-size:60px;"">+</div>","","","ITI","FIX",",527,527,527,527,527,527,527,527,527,527,527,527,527,527,527,527,527,527,527,527,527,527,527,527,527,527,527,527,527,527,527,527,527,527,527,527,527,527,527,527,527,527,527,527,527,527,527,527,527,527,527,527,527,527,527,527,527,527,527,527",",304,304,304,304,304,304,304,304,304,304,304,304,304,304,304,304,304,304,304,304,304,304,304,304,304,304,304,304,304,304,304,304,304,304,304,304,304,304,304,304,304,304,304,304,304,304,304,304,304,304,304,304,304,304,304,304,304,304,304,304","0,6,10,16,22,26,31,35,41,46,51,56,61,66,71,76,81,86,91,96,101,106,111,115,121,126,130,136,140,146,151,155,161,166,170,176,180,186,191,195,201,206,210,216,221,226,231,236,241,246,250,256,261,266,271,276,281,286,290,296,300","60","easy","","","","","",""
"","mousetracking","5","36145","0.0-4.0-1.0","507","","","","","<div style=""font-size:60px;"">+</div>","","","fixation","FIX",",527,527,527,527,527,527,527,527,527,527,527,527,527,527,527,527,527,527,527,527,527,527,527,527,527,527,527,527,527,527,527,527,527,527,527,527,527,527,527,527,527,527,527,527,527,527,527,527,527,527,527,527,527,527,527,527,527,527,527,527,527,527,527,527,527,527,527,527,527,527,527,527,527,527,527,527,527,527,527,527,527,527,527,527,527,527,527,527,527,527,527,527,527,527,527,527,527,527,527,527,527",",304,304,304,304,304,304,304,304,304,304,304,304,304,304,304,304,304,304,304,304,304,304,304,304,304,304,304,304,304,304,304,304,304,304,304,304,304,304,304,304,304,304,304,304,304,304,304,304,304,304,304,304,304,304,304,304,304,304,304,304,304,304,304,304,304,304,304,304,304,304,304,304,304,304,304,304,304,304,304,304,304,304,304,304,304,304,304,304,304,304,304,304,304,304,304,304,304,304,304,304,304","0,6,12,16,21,26,31,36,41,46,51,56,61,66,71,76,81,86,92,96,101,107,111,116,120,126,132,136,141,146,151,155,161,166,171,176,180,186,191,195,201,206,211,216,221,227,231,236,241,246,251,256,261,266,272,276,281,287,291,296,301,306,312,316,321,327,331,336,340,346,351,356,361,366,371,375,381,386,391,395,401,406,412,416,421,427,431,436,440,446,451,456,460,466,472,476,481,486,491,495,501,506","101","easy","","","","","",""
"","mousetracking","6","37341","0.0-4.0-2.0","1195","","","","","<div style=""font-size:60px;"">+</div>","","","delay","FIX",",535,535,535,535,535,535,535,535,535,535,535,535,535,535,535,535,535,535,535,535,535,535,535,535,535,535,535,535,535,535,535,535,535,535,535,535,535,535,535,535,535,535,535,535,535,535,535,535,535,535,535,535,535,535,535,535,535,535,535,535,535,535,535,535,535,535,535,535,535,535,535,535,535,535,535,535,535,535,535,535,535,535,535,535,535,535,535,535,535,535,535,535,535,535,535,535,535,535,535,535,535,535,535,535,535,535,535,535,535,535,535,535,535,535,535,535,535,535,535,535,535,535,535,535,535,535,535,535,535,535,535,535,535,535,535,535,535,535,535,535,535,535,535,535,535,535,535,535,535,535,535,535,535,535,535,535,535,535,535,535,535,535,535,535,535,535,535,535,535,535,535,535,535,535,535,535,535,535,535,535,535,535,535,535,535,535,535,535,535,535,535,535,535,535,535,535,535,535,535,535,535,535,535,535,535,535,535,535,535,535,535,535,535,535,535,535,535,535,535,535,535,535,535,535,535,535,535,535,535,535,535,535,535,535,535,535,535,535",",303,303,303,303,303,303,303,303,303,303,303,303,303,303,303,303,303,303,303,303,303,303,303,303,303,303,303,303,303,303,303,303,303,303,303,303,303,303,303,303,303,303,303,303,303,303,303,303,303,303,303,303,303,303,303,303,303,303,303,303,303,303,303,303,303,303,303,303,303,303,303,303,303,303,303,303,303,303,303,303,303,303,303,303,303,303,303,303,303,303,303,303,303,303,303,303,303,303,303,303,303,303,303,303,303,303,303,303,303,303,303,303,303,303,303,303,303,303,303,303,303,303,303,303,303,303,303,303,303,303,303,303,303,303,303,303,303,303,303,303,303,303,303,303,303,303,303,303,303,303,303,303,303,303,303,303,303,303,303,303,303,303,303,303,303,303,303,303,303,303,303,303,303,303,303,303,303,303,303,303,303,303,303,303,303,303,303,303,303,303,303,303,303,303,303,303,303,303,303,303,303,303,303,303,303,303,303,303,303,303,303,303,303,303,303,303,303,303,303,303,303,303,303,303,303,303,303,303,303,303,303,303,303,303,303,303,303,303","0,6,12,16,21,26,31,36,41,47,51,56,62,66,71,76,81,87,91,96,102,106,111,116,121,126,131,136,141,147,151,156,162,166,171,177,181,187,192,196,201,206,211,216,221,226,231,237,241,247,251,256,261,266,271,276,281,286,291,296,301,307,311,316,322,326,331,336,341,347,351,356,361,366,371,376,381,386,391,397,401,406,411,416,421,427,431,436,441,446,451,456,461,467,471,476,482,486,491,496,501,506,511,516,521,527,531,536,542,546,551,557,561,566,572,576,581,587,591,596,602,606,611,616,621,626,632,636,641,647,651,656,661,666,671,676,681,687,691,696,702,706,711,717,721,726,732,736,741,747,751,756,761,766,771,776,781,786,791,796,801,807,811,816,822,826,831,836,841,847,851,856,862,866,871,876,881,887,891,896,902,906,911,917,921,926,931,936,941,946,951,956,961,966,971,976,981,987,991,996,1002,1006,1011,1016,1021,1027,1031,1036,1042,1046,1051,1056,1061,1066,1072,1076,1081,1086,1091,1096,1101,1106,1111,1116,1121,1127,1131,1136,1141,1146,1151,1156,1161,1166,1171,1176,1181,1187,1191","238","easy","","","","","",""
"","mousetracking","7","37431","0.0-4.0-3.0","88","","","","","<div style=""font-size:60px;"">+</div>","","","rt_catch","FIX",",535,535,535,535,535,535,535,535,535,535,535,535,535,535,535,535,535",",303,303,303,303,303,303,303,303,303,303,303,303,303,303,303,303,303","1,6,11,16,22,26,32,36,41,47,51,56,62,66,72,76,81,87","17","easy","","","","","",""
"","mousetracking","8","37768","0.0-4.0-4.0","335","","","","","<div style=""font-size:60px;"">+</div>","","","rt_window","HIT",",535,535,535,535,535,535,535,535,535,535,535,535,535,535,535,535,535,535,535,535,535,535,535,535,535,535,535,535,535,535,535,535,535,535,535,535,535,535,535,535,535,535,535,535,535,535,535,535,535,535,535,535,535,535,535,535,535,535,535,535,535,535,535,535,535,535",",303,303,303,303,303,303,303,303,303,303,303,303,303,303,303,303,303,303,303,303,303,303,303,303,303,303,303,303,303,303,303,303,303,303,303,303,303,303,303,303,303,303,303,303,303,303,303,303,303,303,303,303,303,303,303,303,303,303,303,303,303,303,303,303,303,303","0,5,11,16,20,25,31,35,40,46,51,56,60,66,71,75,81,86,90,96,100,105,111,115,120,126,130,135,141,145,151,155,160,166,170,175,181,185,191,196,200,206,210,215,221,225,231,236,240,246,250,255,261,265,271,275,280,286,290,295,300,305,310,316,320,325,331","66","easy","","","","","",""
"","mousetracking","9","38094","0.0-4.0-5.0","326","","","","","<div style=""font-size:60px;"">+</div>","","","decision","ACQUIRE_TARG",",,,,582,582,582,582,582,582,582,582,582,582,582,582,582,582,582,582,582,582,582,582,582,582,582,582,582,582,582,582,582,582,582,582,582,582,582,582,582,582,582,582,582,582,582,582,582,582,582,582,582,582,582,582,582,582,582,582,582,582,582,582,695",",,,,345,345,345,345,345,345,345,345,345,345,345,345,345,345,345,345,345,345,345,345,345,345,345,345,345,345,345,345,345,345,345,345,345,345,345,345,345,345,345,345,345,345,345,345,345,345,345,345,345,345,345,345,345,345,345,345,345,345,345,345,459","0,6,12,16,21,25,31,36,41,46,51,56,61,66,71,77,81,86,92,96,101,106,111,116,121,126,131,136,142,146,151,156,161,166,171,176,181,186,192,196,201,206,211,217,221,226,231,236,241,246,251,256,262,266,272,276,281,287,291,296,301,306,311,316,321","64","easy","","","","","",""
"","mousetracking","10","38356","0.0-4.0-6.0","261","","","","","<div style=""font-size:60px;"">+</div>","","","targer_hold","SUCCESS",",,696,696,696,696,696,696,696,696,696,696,696,696,696,696,696,696,696,696,696,696,696,696,696,696,696,696,696,696,696,696,696,696,696,696,696,696,696,696,696,696,696,696,696,696,696,696,696,696,696,696",",,462,462,462,462,462,462,462,462,462,462,462,462,462,462,462,462,462,462,462,462,462,462,462,462,462,462,462,462,462,462,462,462,462,462,462,462,462,462,462,462,462,462,462,462,462,462,462,462,462,462","0,6,10,16,21,25,31,35,40,45,51,55,60,66,70,75,80,86,91,96,101,105,111,116,121,125,131,136,140,146,151,155,160,166,170,176,180,185,191,195,200,206,210,216,221,225,231,235,240,246,250,256","51","","50","","","","",""
"","html-keyboard-response","11","39362","0.0-4.0-7.0","null","","","","","<p style=color:green;>SUCCESS! + 50 points</p> SCORE: 50, Trial number: 1","null","","feedback","","","","","","easy","50","230","50","273.22330470336317,456.77669529663683","SUCCESS!",""
"","mousetracking","12","39671","0.0-4.0-0.1","308","","","","","<div style=""font-size:60px;"">+</div>","","","ITI","FIX",",539,539,539,539,539,539,539,539,539,539,539,539,539,539,539,539,539,539,539,539,539,539,539,539,539,539,539,539,539,539,539,539,539,539,539,539,539,539,539,539,539,539,539,539,539,539,539,539,539,539,539,539,539,539,539,539,539,539,539,539,539",",312,312,312,312,312,312,312,312,312,312,312,312,312,312,312,312,312,312,312,312,312,312,312,312,312,312,312,312,312,312,312,312,312,312,312,312,312,312,312,312,312,312,312,312,312,312,312,312,312,312,312,312,312,312,312,312,312,312,312,312,312","0,6,11,15,21,26,31,36,41,46,51,56,61,66,71,76,81,86,90,96,101,105,111,116,121,126,131,135,141,146,151,156,161,166,171,176,181,186,191,195,201,206,211,216,221,226,231,236,241,246,250,256,261,265,271,276,281,286,291,296,301,306","61","easy","","","","","",""
"","mousetracking","13","40180","0.0-4.0-1.1","508","","","","","<div style=""font-size:60px;"">+</div>","","","fixation","FIX",",539,539,539,539,539,539,539,539,539,539,539,539,539,539,539,539,539,539,539,539,539,539,539,539,539,539,539,539,539,539,539,539,539,539,539,539,539,539,539,539,539,539,539,539,539,539,539,539,539,539,539,539,539,539,539,539,539,539,539,539,539,539,539,539,539,539,539,539,539,539,539,539,539,539,539,539,539,539,539,539,539,539,539,539,539,539,539,539,539,539,539,539,539,539,539,539,539,539,539,539,539",",312,312,312,312,312,312,312,312,312,312,312,312,312,312,312,312,312,312,312,312,312,312,312,312,312,312,312,312,312,312,312,312,312,312,312,312,312,312,312,312,312,312,312,312,312,312,312,312,312,312,312,312,312,312,312,312,312,312,312,312,312,312,312,312,312,312,312,312,312,312,312,312,312,312,312,312,312,312,312,312,312,312,312,312,312,312,312,312,312,312,312,312,312,312,312,312,312,312,312,312,312","0,6,12,16,21,26,32,36,41,47,51,56,60,66,72,76,81,87,91,96,100,106,112,115,121,126,131,136,141,146,151,155,161,166,171,176,181,186,191,195,201,207,211,216,221,226,232,236,241,246,251,256,261,266,271,276,281,286,291,296,301,306,312,316,321,326,331,336,341,346,351,356,361,366,371,376,381,387,391,396,401,406,412,416,421,426,432,436,440,446,451,456,461,466,471,476,481,486,491,496,501,506","101","easy","","","","","",""
"","mousetracking","14","42034","0.0-4.0-2.1","1853","","","","","<div style=""font-size:60px;"">+</div>","","","delay","FIX",",526,526,526,526,526,526,526,526,526,526,526,526,526,526,526,526,526,526,526,526,526,526,526,526,526,526,526,526,526,526,526,526,526,526,526,526,526,526,526,526,526,526,526,526,526,526,526,526,526,526,526,526,526,526,526,526,526,526,526,526,526,526,526,526,526,526,526,526,526,526,526,526,526,526,526,526,526,526,526,526,526,526,526,526,526,526,526,526,526,526,526,526,526,526,526,526,526,526,526,526,526,526,526,526,526,526,526,526,526,526,526,526,526,526,526,526,526,526,526,526,526,526,526,526,526,526,526,526,526,526,526,526,526,526,526,526,526,526,526,526,526,526,526,526,526,526,526,526,526,526,526,526,526,526,526,526,526,526,526,526,526,526,526,526,526,526,526,526,526,526,526,526,526,526,526,526,526,526,526,526,526,526,526,526,526,526,526,526,526,526,526,526,526,526,526,526,526,526,526,526,526,526,526,526,526,526,526,526,526,526,526,526,526,526,526,526,526,526,526,526,526,526,526,526,526,526,526,526,526,526,526,526,526,526,526,526,526,526,526,526,526,526,526,526,526,526,526,526,526,526,526,526,526,526,526,526,526,526,526,526,526,526,526,526,526,526,526,526,526,526,526,526,526,526,526,526,526,526,526,526,526,526,526,526,526,526,526,526,526,526,526,526,526,526,526,526,526,526,526,526,526,526,526,526,526,526,526,526,526,526,526,526,526,526,526,526,526,526,526,526,526,526,526,526,526,526,526,526,526,526,526,526,526,526,526,526,526,526,526,526,526,526,526,526,526,526,526,526,526,526,526,526,526,526,526,526,526,526,526,526,526,526,526,526,526,526,526,526,526,526",",304,304,304,304,304,304,304,304,304,304,304,304,304,304,304,304,304,304,304,304,304,304,304,304,304,304,304,304,304,304,304,304,304,304,304,304,304,304,304,304,304,304,304,304,304,304,304,304,304,304,304,304,304,304,304,304,304,304,304,304,304,304,304,304,304,304,304,304,304,304,304,304,304,304,304,304,304,304,304,304,304,304,304,304,304,304,304,304,304,304,304,304,304,304,304,304,304,304,304,304,304,304,304,304,304,304,304,304,304,304,304,304,304,304,304,304,304,304,304,304,304,304,304,304,304,304,304,304,304,304,304,304,304,304,304,304,304,304,304,304,304,304,304,304,304,304,304,304,304,304,304,304,304,304,304,304,304,304,304,304,304,304,304,304,304,304,304,304,304,304,304,304,304,304,304,304,304,304,304,304,304,304,304,304,304,304,304,304,304,304,304,304,304,304,304,304,304,304,304,304,304,304,304,304,304,304,304,304,304,304,304,304,304,304,304,304,304,304,304,304,304,304,304,304,304,304,304,304,304,304,304,304,304,304,304,304,304,304,304,304,304,304,304,304,304,304,304,304,304,304,304,304,304,304,304,304,304,304,304,304,304,304,304,304,304,304,304,304,304,304,304,304,304,304,304,304,304,304,304,304,304,304,304,304,304,304,304,304,304,304,304,304,304,304,304,304,304,304,304,304,304,304,304,304,304,304,304,304,304,304,304,304,304,304,304,304,304,304,304,304,304,304,304,304,304,304,304,304,304,304,304,304,304,304,304,304,304,304,304,304,304,304,304,304,304,304,304,304,304,304,304,304,304,304,304,304,304,304,304,304,304,304,304,304,304,304,304,304,304,304","0,6,10,16,20,26,30,36,41,45,51,56,60,66,71,75,81,86,90,96,101,105,111,116,120,126,131,135,141,146,150,156,161,165,171,176,180,186,191,195,201,206,211,216,220,226,231,235,241,246,250,256,261,265,271,276,280,286,291,295,301,305,311,316,320,326,331,336,341,346,351,356,360,366,371,376,381,386,391,395,401,406,411,416,421,425,431,436,440,446,451,455,461,466,470,475,481,485,491,496,500,506,511,515,521,526,531,536,541,545,551,556,560,566,571,575,581,586,590,596,601,605,611,616,620,626,631,635,641,646,651,656,660,666,671,676,681,686,691,696,701,706,711,716,720,726,731,735,741,746,750,756,761,765,771,776,781,786,791,795,801,805,811,816,820,826,831,835,841,845,851,856,860,866,871,875,881,886,890,896,901,905,911,916,921,925,931,936,941,946,951,955,961,965,971,976,981,986,991,995,1001,1006,1011,1016,1020,1025,1031,1035,1041,1046,1050,1056,1061,1065,1071,1076,1081,1086,1091,1095,1101,1105,1111,1116,1120,1126,1131,1135,1141,1146,1151,1156,1161,1165,1171,1176,1181,1186,1191,1195,1201,1206,1211,1216,1221,1225,1231,1236,1241,1246,1250,1256,1261,1265,1271,1276,1280,1286,1291,1295,1301,1306,1311,1316,1321,1325,1331,1335,1341,1346,1350,1356,1361,1365,1370,1376,1381,1385,1391,1396,1401,1406,1411,1416,1421,1425,1431,1436,1440,1446,1451,1455,1461,1466,1471,1476,1481,1485,1491,1496,1501,1506,1511,1516,1521,1525,1531,1536,1540,1546,1551,1555,1561,1566,1570,1576,1581,1585,1591,1596,1600,1606,1611,1616,1621,1626,1631,1635,1641,1646,1651,1656,1661,1665,1671,1675,1681,1686,1690,1696,1701,1705,1711,1716,1721,1726,1731,1735,1741,1746,1751,1756,1761,1765,1771,1776,1781,1786,1790,1796,1801,1806,1811,1816,1820,1826,1831,1836,1841,1845,1851","370","easy","","","","","",""
"","mousetracking","15","42121","0.0-4.0-3.1","85","","","","","<div style=""font-size:60px;"">+</div>","","","rt_catch","FIX",",526,526,526,526,526,526,526,526,526,526,526,526,526,526,526,526,526",",304,304,304,304,304,304,304,304,304,304,304,304,304,304,304,304,304","0,5,10,15,21,25,30,36,40,46,50,56,61,65,71,75,81,85","17","easy","","","","","",""
"","mousetracking","16","42451","0.0-4.0-4.1","330","","","","","<div style=""font-size:60px;"">+</div>","","","rt_window","HIT",",526,526,526,526,526,526,526,526,526,526,526,526,526,526,526,526,526,526,526,526,526,526,526,526,526,526,526,526,526,526,526,526,526,526,526,526,526,526,526,526,526,526,526,526,526,526,526,526,526,526,526,526,526,526,526,526,526,526,526,526,526,526,526,526,526",",304,304,304,304,304,304,304,304,304,304,304,304,304,304,304,304,304,304,304,304,304,304,304,304,304,304,304,304,304,304,304,304,304,304,304,304,304,304,304,304,304,304,304,304,304,304,304,304,304,304,304,304,304,304,304,304,304,304,304,304,304,304,304,304,304","0,5,11,16,20,26,30,36,41,45,51,55,61,65,70,76,80,85,90,96,100,105,110,116,121,125,131,135,140,146,150,156,161,165,171,175,180,186,190,196,200,205,210,215,221,225,231,235,240,246,250,256,260,265,271,275,280,285,291,296,300,306,310,316,320,325","65","easy","","","","","",""
"","mousetracking","17","42661","0.0-4.0-5.1","210","","","","","<div style=""font-size:60px;"">+</div>","","","decision","ACQUIRE_TARG",",,,,492,492,492,492,492,492,492,492,492,492,492,492,492,492,492,492,492,492,492,492,492,492,492,492,492,492,492,492,492,492,492,492,492,492,492,492,366,366",",,,,336,336,336,336,336,336,336,336,336,336,336,336,336,336,336,336,336,336,336,336,336,336,336,336,336,336,336,336,336,336,336,336,336,336,336,336,466,466","0,6,11,16,21,26,30,36,41,46,51,56,61,66,71,76,82,86,91,96,101,106,111,116,121,126,131,137,141,146,151,156,161,166,171,176,181,186,191,196,200,206","41","easy","","","","","",""
"","mousetracking","18","42921","0.0-4.0-6.1","260","","","","","<div style=""font-size:60px;"">+</div>","","","targer_hold","SUCCESS",",,364,364,364,364,364,364,364,364,364,364,364,364,364,364,364,364,364,364,364,364,364,364,364,364,364,364,364,364,364,364,364,364,364,364,364,364,364,364,364,364,364,364,364,364,364,364,364,364,364,364",",,468,468,468,468,468,468,468,468,468,468,468,468,468,468,468,468,468,468,468,468,468,468,468,468,468,468,468,468,468,468,468,468,468,468,468,468,468,468,468,468,468,468,468,468,468,468,468,468,468,468","0,6,10,16,21,26,32,36,41,46,51,56,60,66,72,76,80,86,91,96,101,107,111,116,121,126,131,136,140,146,152,156,161,167,171,176,181,186,192,196,201,206,211,215,221,226,231,236,240,246,251,256","51","","20","","","","",""
"","html-keyboard-response","19","43923","0.0-4.0-7.1","null","","","","","<p style=color:green;>SUCCESS! + 20 points</p> SCORE: 70, Trial number: 2","null","","feedback","","","","","","easy","20","230","50","626.7766952966368,456.77669529663683","SUCCESS!",""
"","mousetracking","20","45107","0.0-4.0-0.2","1184","","","","","<div style=""font-size:60px;"">+</div>","","","ITI","FIX",",361,361,361,361,361,361,361,361,361,361,361,361,361,361,361,361,361,361,361,361,361,361,361,361,361,361,361,361,361,361,361,361,361,361,361,361,361,361,361,361,361,361,361,361,361,361,361,361,361,361,361,361,361,361,361,361,361,361,361,361,361,361,361,361,361,361,361,361,361,361,361,361,361,361,361,361,361,361,361,361,361,361,361,361,361,361,361,361,361,361,361,361,361,361,361,361,361,361,361,361,361,361,361,361,361,361,361,361,361,361,361,361,361,361,361,361,361,361,361,361,361,361,361,361,361,361,361,361,361,361,361,361,361,361,361,361,361,361,361,361,361,361,361,361,361,361,361,361,361,361,361,361,361,361,361,361,361,361,361,361,361,361,361,361,361,361,361,361,361,361,361,361,361,361,361,549,549,549,549,549,549,549,549,549,549,549,549,549,549,549,549,549,549,549,549,549,549,549,549,549,549,549,549,549,549,549,549,549,549,549,549,549,549,549,549,549,549,549,549,549,549,549,549,549,549,549,549,549,549,549,549,549,549,549,549,549",",470,470,470,470,470,470,470,470,470,470,470,470,470,470,470,470,470,470,470,470,470,470,470,470,470,470,470,470,470,470,470,470,470,470,470,470,470,470,470,470,470,470,470,470,470,470,470,470,470,470,470,470,470,470,470,470,470,470,470,470,470,470,470,470,470,470,470,470,470,470,470,470,470,470,470,470,470,470,470,470,470,470,470,470,470,470,470,470,470,470,470,470,470,470,470,470,470,470,470,470,470,470,470,470,470,470,470,470,470,470,470,470,470,470,470,470,470,470,470,470,470,470,470,470,470,470,470,470,470,470,470,470,470,470,470,470,470,470,470,470,470,470,470,470,470,470,470,470,470,470,470,470,470,470,470,470,470,470,470,470,470,470,470,470,470,470,470,470,470,470,470,470,470,470,470,312,312,312,312,312,312,312,312,312,312,312,312,312,312,312,312,312,312,312,312,312,312,312,312,312,312,312,312,312,312,312,312,312,312,312,312,312,312,312,312,312,312,312,312,312,312,312,312,312,312,312,312,312,312,312,312,312,312,312,312,312","0,6,11,16,22,26,31,37,41,47,52,56,61,67,71,76,82,86,91,96,101,107,112,116,122,126,131,137,141,147,152,156,161,166,171,176,181,186,192,196,201,206,211,216,221,226,231,236,241,246,251,256,261,266,271,276,282,286,291,296,301,306,311,316,321,327,331,337,341,346,351,356,361,366,371,377,382,386,391,396,401,407,411,417,421,427,432,436,442,447,451,456,462,466,471,477,481,487,491,496,501,507,511,516,522,526,531,536,541,547,551,556,561,566,571,576,582,587,591,596,602,606,611,616,622,626,632,636,642,646,651,656,661,666,671,676,682,686,691,696,702,706,711,716,721,727,731,736,742,746,751,757,761,766,771,776,782,787,791,796,802,806,811,816,822,826,831,837,841,846,851,857,861,867,871,876,881,886,891,896,901,906,911,917,921,926,932,936,941,947,951,956,961,966,971,976,981,987,991,996,1002,1006,1011,1017,1021,1026,1031,1036,1041,1047,1051,1056,1061,1066,1071,1076,1081,1086,1091,1096,1101,1107,1111,1116,1121,1126,1131,1136,1141,1146,1151,1156,1161,1166,1171,1177,1181","236","easy","","","","","",""
"","mousetracking","21","45623","0.0-4.0-1.2","515","","","","","<div style=""font-size:60px;"">+</div>","","","fixation","FIX",",,533,533,533,533,533,533,533,533,533,533,533,533,533,533,533,533,533,533,533,533,533,533,533,533,533,533,533,533,533,533,533,533,533,533,533,533,533,533,533,533,533,533,533,533,533,533,533,533,533,533,533,533,533,533,533,533,533,533,533,533,533,533,533,533,533,533,533,533,533,533,533,533,533,533,533,533,533,533,533,533,533,533,533,533,533,533,533,533,533,533,533,533,533,533,533,533,533,533,533,533,533",",,306,306,306,306,306,306,306,306,306,306,306,306,306,306,306,306,306,306,306,306,306,306,306,306,306,306,306,306,306,306,306,306,306,306,306,306,306,306,306,306,306,306,306,306,306,306,306,306,306,306,306,306,306,306,306,306,306,306,306,306,306,306,306,306,306,306,306,306,306,306,306,306,306,306,306,306,306,306,306,306,306,306,306,306,306,306,306,306,306,306,306,306,306,306,306,306,306,306,306,306,306","0,6,11,16,21,25,31,36,40,46,50,56,61,66,71,76,81,86,91,95,101,106,112,116,121,125,131,136,140,146,151,155,161,166,171,176,181,186,191,195,201,205,211,216,220,226,231,235,241,245,251,256,260,266,271,275,281,285,291,296,300,306,311,315,321,326,331,336,340,346,351,356,360,366,370,376,381,385,391,396,400,406,411,415,421,426,431,436,440,445,451,456,461,465,471,476,481,486,491,495,500,506,510","102","easy","","","","","",""
"","mousetracking","22","46504","0.0-4.0-2.2","880","","","","","<div style=""font-size:60px;"">+</div>","","","delay","FIX",",533,533,533,533,533,533,533,533,533,533,533,533,533,533,533,533,533,533,533,533,533,533,533,533,533,533,533,533,533,533,533,533,533,533,533,533,533,533,533,533,533,533,533,533,533,533,533,533,533,533,533,533,533,533,533,533,533,533,533,533,533,533,533,533,533,533,533,533,533,533,533,533,533,533,533,533,533,533,533,533,533,533,533,533,533,533,533,533,533,533,533,533,533,533,533,533,533,533,533,533,533,533,533,533,533,533,533,533,533,533,533,533,533,533,533,533,533,533,533,533,533,533,533,533,533,533,533,533,533,533,533,533,533,533,533,533,533,533,533,533,533,533,533,533,533,533,533,533,533,533,533,533,533,533,533,533,533,533,533,533,533,533,533,533,533,533,533,533,533,533,533,533,533,533,533",",305,305,305,305,305,305,305,305,305,305,305,305,305,305,305,305,305,305,305,305,305,305,305,305,305,305,305,305,305,305,305,305,305,305,305,305,305,305,305,305,305,305,305,305,305,305,305,305,305,305,305,305,305,305,305,305,305,305,305,305,305,305,305,305,305,305,305,305,305,305,305,305,305,305,305,305,305,305,305,305,305,305,305,305,305,305,305,305,305,305,305,305,305,305,305,305,305,305,305,305,305,305,305,305,305,305,305,305,305,305,305,305,305,305,305,305,305,305,305,305,305,305,305,305,305,305,305,305,305,305,305,305,305,305,305,305,305,305,305,305,305,305,305,305,305,305,305,305,305,305,305,305,305,305,305,305,305,305,305,305,305,305,305,305,305,305,305,305,305,305,305,305,305,305,305","0,6,12,16,21,26,31,36,41,46,52,56,61,66,71,76,81,86,92,96,101,107,111,116,121,126,132,136,141,147,151,156,161,166,172,177,181,187,191,196,202,206,212,216,221,227,231,236,242,246,252,257,261,267,271,276,282,286,292,297,301,307,311,316,322,326,331,336,341,346,351,356,362,366,372,377,381,387,391,396,402,406,411,416,421,426,432,436,441,447,451,456,461,466,472,476,481,487,491,496,501,506,512,516,521,526,532,536,541,546,551,556,561,566,572,576,581,587,591,596,601,606,612,616,621,627,631,636,642,646,652,656,661,667,671,676,682,686,692,697,701,707,711,716,722,726,731,736,741,746,752,756,761,767,771,776,781,786,792,796,801,807,811,816,821,826,832,836,841,847,851,856,861,866,872,876","175","easy","","","","","",""
"","mousetracking","23","46589","0.0-4.0-3.2","84","","","","","<div style=""font-size:60px;"">+</div>","","","rt_catch","FIX",",533,533,533,533,533,533,533,533,533,533,533,533,533,533,533,533",",305,305,305,305,305,305,305,305,305,305,305,305,305,305,305,305","0,6,12,16,21,26,31,35,41,46,52,56,61,66,71,76,80","16","easy","","","","","",""
"","mousetracking","24","46902","0.0-4.0-4.2","312","","","","","<div style=""font-size:60px;"">+</div>","","","rt_window","HIT",",533,533,533,533,533,533,533,533,533,533,533,533,533,533,533,533,533,533,533,533,533,533,533,533,533,533,533,533,533,533,533,533,533,533,533,533,533,533,533,533,533,533,533,533,533,533,533,533,533,533,533,533,533,533,533,533,533,533,533,533,533,533",",305,305,305,305,305,305,305,305,305,305,305,305,305,305,305,305,305,305,305,305,305,305,305,305,305,305,305,305,305,305,305,305,305,305,305,305,305,305,305,305,305,305,305,305,305,305,305,305,305,305,305,305,305,305,305,305,305,305,305,305,305,305","0,6,11,16,21,26,30,36,41,47,51,56,60,66,71,75,81,86,90,96,101,106,111,115,121,126,130,136,141,146,151,155,161,166,170,176,181,187,191,196,201,206,210,216,221,227,231,236,240,246,251,255,261,266,270,276,281,286,291,296,301,306,311","62","easy","","","","","",""
"","mousetracking","25","47012","0.0-4.0-5.2","109","","","","","<div style=""font-size:60px;"">+</div>","","","decision","ACQUIRE_TARG",",,,486,486,486,486,486,486,486,486,486,486,486,486,486,486,486,486,486,355,355",",,,287,287,287,287,287,287,287,287,287,287,287,287,287,287,287,287,287,197,197","0,6,11,16,21,26,30,36,42,46,50,56,61,66,70,76,81,86,91,96,101,106","21","easy","","","","","",""
"","mousetracking","26","47272","0.0-4.0-6.2","259","","","","","<div style=""font-size:60px;"">+</div>","","","targer_hold","SUCCESS",",,342,342,342,342,342,342,342,342,342,342,342,342,342,342,342,342,342,342,342,342,342,342,342,342,342,342,342,342,342,342,342,342,342,342,342,342,342,342,342,342,342,342,342,342,342,342,342,342,342,342",",,187,187,187,187,187,187,187,187,187,187,187,187,187,187,187,187,187,187,187,187,187,187,187,187,187,187,187,187,187,187,187,187,187,187,187,187,187,187,187,187,187,187,187,187,187,187,187,187,187,187","0,5,10,15,20,26,30,36,41,45,50,55,61,66,70,75,80,86,91,95,101,105,111,116,120,125,131,135,140,145,151,155,161,165,170,176,180,185,191,195,200,206,210,216,221,225,231,236,240,246,251,255","51","","10","","","","",""
"","html-keyboard-response","27","48277","0.0-4.0-7.2","null","","","","","<p style=color:green;>SUCCESS! + 10 points</p> SCORE: 80, Trial number: 3","null","","feedback","","","","","","easy","10","220","100","626.7766952966368,103.22330470336314","SUCCESS!",""
"","mousetracking","28","48584","0.0-4.0-0.3","306","","","","","<div style=""font-size:60px;"">+</div>","","","ITI","FIX",",536,536,536,536,536,536,536,536,536,536,536,536,536,536,536,536,536,536,536,536,536,536,536,536,536,536,536,536,536,536,536,536,536,536,536,536,536,536,536,536,536,536,536,536,536,536,536,536,536,536,536,536,536,536,536,536,536,536,536,536,536",",317,317,317,317,317,317,317,317,317,317,317,317,317,317,317,317,317,317,317,317,317,317,317,317,317,317,317,317,317,317,317,317,317,317,317,317,317,317,317,317,317,317,317,317,317,317,317,317,317,317,317,317,317,317,317,317,317,317,317,317,317","0,5,11,16,21,26,30,36,41,46,51,55,61,66,70,76,81,86,91,96,101,106,111,116,121,127,131,136,141,146,151,156,161,167,171,176,181,186,190,196,201,206,211,215,221,226,230,236,241,246,251,255,261,266,270,276,281,286,291,296,301,306","61","easy","","","","","",""
"","mousetracking","29","49089","0.0-4.0-1.3","504","","","","","<div style=""font-size:60px;"">+</div>","","","fixation","FIX",",536,536,536,536,536,536,536,536,536,536,536,536,536,536,536,536,536,536,536,536,536,536,536,536,536,536,536,536,536,536,536,536,536,536,536,536,536,536,536,536,536,536,536,536,536,536,536,536,536,536,536,536,536,536,536,536,536,536,536,536,536,536,536,536,536,536,536,536,536,536,536,536,536,536,536,536,536,536,536,536,536,536,536,536,536,536,536,536,536,536,536,536,536,536,536,536,536,536,536,536",",317,317,317,317,317,317,317,317,317,317,317,317,317,317,317,317,317,317,317,317,317,317,317,317,317,317,317,317,317,317,317,317,317,317,317,317,317,317,317,317,317,317,317,317,317,317,317,317,317,317,317,317,317,317,317,317,317,317,317,317,317,317,317,317,317,317,317,317,317,317,317,317,317,317,317,317,317,317,317,317,317,317,317,317,317,317,317,317,317,317,317,317,317,317,317,317,317,317,317,317","0,6,11,16,21,27,31,36,40,46,50,56,61,66,71,75,81,86,92,96,101,106,111,116,121,126,132,136,140,146,151,155,161,166,172,176,181,186,191,196,201,206,211,215,221,226,231,236,241,246,251,255,261,266,271,275,281,287,291,296,301,306,311,316,320,326,331,336,341,346,351,356,361,366,371,376,380,386,391,396,401,405,411,416,420,426,431,435,441,446,451,456,461,466,471,476,481,486,492,496,501","100","easy","","","","","",""
"","mousetracking","30","50682","0.0-4.0-2.3","1591","","","","","<div style=""font-size:60px;"">+</div>","","","delay","FIX",",535,535,535,535,535,535,535,535,535,535,535,535,535,535,535,535,535,535,535,535,535,535,535,535,535,535,535,535,535,535,535,535,535,535,535,535,535,535,535,535,535,535,535,535,535,535,535,535,535,535,535,535,535,535,535,535,535,535,535,535,535,535,535,535,535,535,535,535,535,535,535,535,535,535,535,535,535,535,535,535,535,535,535,535,535,535,535,535,535,535,535,535,535,535,535,535,535,535,535,535,535,535,535,535,535,535,535,535,535,535,535,535,535,535,535,535,535,535,535,535,535,535,535,535,535,535,535,535,535,535,535,535,535,535,535,535,535,535,535,535,535,535,535,535,535,535,535,535,535,535,535,535,535,535,535,535,535,535,535,535,535,535,535,535,535,535,535,535,535,535,535,535,535,535,535,535,535,535,535,535,535,535,535,535,535,535,535,535,535,535,535,535,535,535,535,535,535,535,535,535,535,535,535,535,535,535,535,535,535,535,535,535,535,535,535,535,535,535,535,535,535,535,535,535,535,535,535,535,535,535,535,535,535,535,535,535,535,535,535,535,535,535,535,535,535,535,535,535,535,535,535,535,535,535,535,535,535,535,535,535,535,535,535,535,535,535,535,535,535,535,535,535,535,535,535,535,535,535,535,535,535,535,535,535,535,535,535,535,535,535,535,535,535,535,535,535,535,535,535,535,535,535,535,535,535,535,535,535,535,535,535,535,535,535,535,535,535,535",",310,310,310,310,310,310,310,310,310,310,310,310,310,310,310,310,310,310,310,310,310,310,310,310,310,310,310,310,310,310,310,310,310,310,310,310,310,310,310,310,310,310,310,310,310,310,310,310,310,310,310,310,310,310,310,310,310,310,310,310,310,310,310,310,310,310,310,310,310,310,310,310,310,310,310,310,310,310,310,310,310,310,310,310,310,310,310,310,310,310,310,310,310,310,310,310,310,310,310,310,310,310,310,310,310,310,310,310,310,310,310,310,310,310,310,310,310,310,310,310,310,310,310,310,310,310,310,310,310,310,310,310,310,310,310,310,310,310,310,310,310,310,310,310,310,310,310,310,310,310,310,310,310,310,310,310,310,310,310,310,310,310,310,310,310,310,310,310,310,310,310,310,310,310,310,310,310,310,310,310,310,310,310,310,310,310,310,310,310,310,310,310,310,310,310,310,310,310,310,310,310,310,310,310,310,310,310,310,310,310,310,310,310,310,310,310,310,310,310,310,310,310,310,310,310,310,310,310,310,310,310,310,310,310,310,310,310,310,310,310,310,310,310,310,310,310,310,310,310,310,310,310,310,310,310,310,310,310,310,310,310,310,310,310,310,310,310,310,310,310,310,310,310,310,310,310,310,310,310,310,310,310,310,310,310,310,310,310,310,310,310,310,310,310,310,310,310,310,310,310,310,310,310,310,310,310,310,310,310,310,310,310,310,310,310,310,310,310","0,6,11,16,21,27,31,36,41,46,52,56,61,67,71,76,81,86,92,96,101,107,111,116,121,126,132,136,141,147,151,156,162,166,172,176,181,187,191,196,202,206,212,216,221,227,231,236,241,246,252,256,261,266,271,276,281,286,292,296,301,306,311,315,321,326,331,336,341,346,351,356,361,366,371,376,381,386,392,396,401,407,411,416,422,426,431,436,441,447,451,456,461,466,471,476,481,486,492,496,501,506,511,516,521,526,532,536,541,547,551,556,561,566,572,576,581,587,591,596,601,606,612,616,621,626,631,636,641,646,652,656,661,666,671,676,681,686,692,697,701,706,711,716,721,726,731,736,741,747,751,756,761,766,772,776,781,787,791,796,801,806,812,816,821,827,831,836,841,846,852,856,861,867,871,876,882,886,891,897,901,906,911,916,921,926,931,935,941,946,952,956,961,967,971,976,981,986,992,996,1001,1007,1011,1016,1022,1026,1032,1036,1041,1047,1051,1056,1062,1066,1071,1075,1081,1086,1091,1096,1101,1106,1111,1115,1121,1126,1131,1136,1141,1146,1151,1155,1161,1166,1171,1176,1181,1186,1192,1196,1201,1207,1211,1216,1221,1226,1232,1236,1241,1247,1251,1256,1261,1266,1272,1276,1281,1287,1291,1296,1301,1306,1312,1316,1321,1326,1331,1336,1342,1346,1352,1355,1361,1367,1371,1376,1381,1386,1392,1396,1401,1406,1411,1416,1421,1426,1432,1436,1441,1447,1451,1456,1462,1466,1472,1476,1481,1486,1491,1496,1501,1506,1511,1516,1521,1526,1532,1536,1541,1546,1551,1556,1561,1566,1572,1576,1581,1587,1591","318","easy","","","","","",""
"","mousetracking","31","50770","0.0-4.0-3.3","87","","","","","<div style=""font-size:60px;"">+</div>","","","rt_catch","FIX",",535,535,535,535,535,535,535,535,535,535,535,535,535,535,535,535,535",",310,310,310,310,310,310,310,310,310,310,310,310,310,310,310,310,310","0,5,11,16,20,26,31,35,41,45,51,56,60,66,71,75,81,85","17","easy","","","","","",""
"","mousetracking","32","51068","0.0-4.0-4.3","296","","","","","<div style=""font-size:60px;"">+</div>","","","rt_window","HIT",",535,535,535,535,535,535,535,535,535,535,535,535,535,535,535,535,535,535,535,535,535,535,535,535,535,535,535,535,535,535,535,535,535,535,535,535,535,535,535,535,535,535,535,535,535,535,535,535,535,535,535,535,535,535,535,535,535,535",",310,310,310,310,310,310,310,310,310,310,310,310,310,310,310,310,310,310,310,310,310,310,310,310,310,310,310,310,310,310,310,310,310,310,310,310,310,310,310,310,310,310,310,310,310,310,310,310,310,310,310,310,310,310,310,310,310,310","0,6,11,16,21,27,31,36,40,46,51,55,61,65,71,76,80,86,91,95,101,106,111,116,121,126,131,135,141,146,151,156,160,166,171,175,181,186,191,196,200,206,211,215,221,226,231,236,240,246,251,256,261,265,271,276,281,286,291","58","easy","","","","","",""
"","mousetracking","33","51128","0.0-4.0-5.3","59","","","","","<div style=""font-size:60px;"">+</div>","","","decision","ACQUIRE_TARG",",,,624,624,624,624,624,624,624,664,664",",,,230,230,230,230,230,230,230,195,195","0,6,11,16,21,27,31,36,41,47,51,56","11","easy","","","","","",""
"","mousetracking","34","51388","0.0-4.0-6.3","259","","","","","<div style=""font-size:60px;"">+</div>","","","targer_hold","SUCCESS",",,681,681,681,681,681,681,681,681,681,681,681,681,681,681,681,681,681,681,681,681,681,681,681,681,681,681,681,681,681,681,681,681,681,681,681,681,681,681,681,681,681,681,681,681,681,681,681,681,681,681",",,179,179,179,179,179,179,179,179,179,179,179,179,179,179,179,179,179,179,179,179,179,179,179,179,179,179,179,179,179,179,179,179,179,179,179,179,179,179,179,179,179,179,179,179,179,179,179,179,179,179","0,6,11,16,21,25,31,36,41,46,52,56,62,66,71,75,81,86,90,96,101,106,111,116,121,126,132,136,141,147,151,156,160,166,171,175,181,186,191,196,201,206,211,216,221,226,232,236,241,247,251,256","51","","20","","","","",""
"","html-keyboard-response","35","52393","0.0-4.0-7.3","null","","","","","<p style=color:green;>SUCCESS! + 20 points</p> SCORE: 100, Trial number: 4","null","","feedback","","","","","","easy","20","230","100","273.22330470336317,103.22330470336314","SUCCESS!",""
"","mousetracking","36","52698","0.0-4.0-0.4","303","","","","","<div style=""font-size:60px;"">+</div>","","","ITI","FIX",",538,538,538,538,538,538,538,538,538,538,538,538,538,538,538,538,538,538,538,538,538,538,538,538,538,538,538,538,538,538,538,538,538,538,538,538,538,538,538,538,538,538,538,538,538,538,538,538,538,538,538,538,538,538,538,538,538,538,538,538",",296,296,296,296,296,296,296,296,296,296,296,296,296,296,296,296,296,296,296,296,296,296,296,296,296,296,296,296,296,296,296,296,296,296,296,296,296,296,296,296,296,296,296,296,296,296,296,296,296,296,296,296,296,296,296,296,296,296,296,296","0,5,10,16,20,25,31,35,40,46,50,55,61,65,70,76,80,86,90,95,101,105,110,115,121,125,131,135,140,146,150,155,161,165,170,176,180,186,191,195,201,205,210,216,220,226,231,235,240,246,250,255,261,265,270,276,280,286,291,295,301","60","easy","","","","","",""
"","mousetracking","37","53206","0.0-4.0-1.4","508","","","","","<div style=""font-size:60px;"">+</div>","","","fixation","FIX",",538,538,538,538,538,538,538,538,538,538,538,538,538,538,538,538,538,538,538,538,538,538,538,538,538,538,538,538,538,538,538,538,538,538,538,538,538,538,538,538,538,538,538,538,538,538,538,538,538,538,538,538,538,538,538,538,538,538,538,538,538,538,538,538,538,538,538,538,538,538,538,538,538,538,538,538,538,538,538,538,538,538,538,538,538,538,538,538,538,538,538,538,538,538,538,538,538,538,538,538,538",",296,296,296,296,296,296,296,296,296,296,296,296,296,296,296,296,296,296,296,296,296,296,296,296,296,296,296,296,296,296,296,296,296,296,296,296,296,296,296,296,296,296,296,296,296,296,296,296,296,296,296,296,296,296,296,296,296,296,296,296,296,296,296,296,296,296,296,296,296,296,296,296,296,296,296,296,296,296,296,296,296,296,296,296,296,296,296,296,296,296,296,296,296,296,296,296,296,296,296,296,296","0,6,12,16,21,27,31,36,42,46,52,57,61,67,71,76,82,86,91,96,101,106,112,116,121,126,131,136,141,146,152,156,161,166,171,176,181,186,192,196,201,207,211,216,221,226,232,236,241,247,251,256,261,266,272,276,282,286,292,296,301,307,311,316,322,326,332,336,341,347,351,356,361,366,372,376,381,387,391,396,402,406,412,416,421,427,431,436,442,446,451,456,461,466,471,476,481,487,491,496,501,506","101","easy","","","","","",""
"","mousetracking","38","55214","0.0-4.0-2.4","2007","","","","","<div style=""font-size:60px;"">+</div>","","","delay","FIX",",538,538,538,538,538,538,538,538,538,538,538,538,538,538,538,538,538,538,538,538,538,538,538,538,538,538,538,538,538,538,538,538,538,538,538,538,538,538,538,538,538,538,538,538,538,538,538,538,538,538,538,538,538,538,538,538,538,538,538,538,538,538,538,538,538,538,538,538,538,538,538,538,538,538,538,538,538,538,538,538,538,538,538,538,538,538,538,538,538,538,538,538,538,538,538,538,538,538,538,538,538,538,538,538,538,538,538,538,538,538,538,538,538,538,538,538,538,538,538,538,538,538,538,538,538,538,538,538,538,538,538,538,538,538,538,538,538,538,538,538,538,538,538,538,538,538,538,538,538,538,538,538,538,538,538,538,538,538,538,538,538,538,538,538,538,538,538,538,538,538,538,538,538,538,538,538,538,538,538,538,538,538,538,538,538,538,538,538,538,538,538,538,538,538,538,538,538,538,538,538,538,538,538,538,538,538,538,538,538,538,538,538,538,538,538,538,538,538,538,538,538,538,538,538,538,538,538,538,538,538,538,538,538,538,538,538,538,538,538,538,538,538,538,538,538,538,538,538,538,538,538,538,538,538,538,538,538,538,538,538,538,538,538,538,538,538,538,538,538,538,538,538,538,538,538,538,538,538,538,538,538,538,538,538,538,538,538,538,538,538,538,538,538,538,538,538,538,538,538,538,538,538,538,538,538,538,538,538,538,538,538,538,538,538,538,538,538,538,538,538,538,538,538,538,538,538,538,538,538,538,538,538,538,538,538,538,538,538,538,538,538,538,538,538,538,538,538,538,538,538,538,538,538,538,538,538,538,538,538,538,538,538,538,538,538,538,538,538,538,538,538,538,538,538,538,538,538,538,538,538,538,538,538,538,538,538,538,538,538,538,538,538,538,538,538,538,538,538,538,538,538",",296,296,296,296,296,296,296,296,296,296,296,296,296,296,296,296,296,296,296,296,296,296,296,296,296,296,296,296,296,296,296,296,296,296,296,296,296,296,296,296,296,296,296,296,296,296,296,296,296,296,296,296,296,296,296,296,296,296,296,296,296,296,296,296,296,296,296,296,296,296,296,296,296,296,296,296,296,296,296,296,296,296,296,296,296,296,296,296,296,296,296,296,296,296,296,296,296,296,296,296,296,296,296,296,296,296,296,296,296,296,296,296,296,296,296,296,296,296,296,296,296,296,296,296,296,296,296,296,296,296,296,296,296,296,296,296,296,296,296,296,296,296,296,296,296,296,296,296,296,296,296,296,296,296,296,296,296,296,296,296,296,296,296,296,296,296,296,296,296,296,296,296,296,296,296,296,296,296,296,296,296,296,296,296,296,296,296,296,296,296,296,296,296,296,296,296,296,296,296,296,296,296,296,296,296,296,296,296,296,296,296,296,296,296,296,296,296,296,296,296,296,296,296,296,296,296,296,296,296,296,296,296,296,296,296,296,296,296,296,296,296,296,296,296,296,296,296,296,296,296,296,296,296,296,296,296,296,296,296,296,296,296,296,296,296,296,296,296,296,296,296,296,296,296,296,296,296,296,296,296,296,296,296,296,296,296,296,296,296,296,296,296,296,296,296,296,296,296,296,296,296,296,296,296,296,296,296,296,296,296,296,296,296,296,296,296,296,296,296,296,296,296,296,296,296,296,296,296,296,296,296,296,296,296,296,296,296,296,296,296,296,296,296,296,296,296,296,296,296,296,296,296,296,296,296,296,296,296,296,296,296,296,296,296,296,296,296,296,296,296,296,296,296,296,296,296,296,296,296,296,296,296,296,296,296,296,296,296,296,296,296,296,296,296,296,296,296,296,296,296,296","0,5,11,15,21,26,30,36,41,46,51,56,61,66,70,76,81,86,91,96,101,106,111,115,121,126,130,136,141,146,151,156,161,166,171,176,181,185,191,196,200,206,211,215,221,226,230,236,241,246,251,255,261,266,271,276,280,286,291,295,301,306,310,316,321,326,331,336,341,346,350,355,361,366,370,376,381,386,391,395,401,406,410,416,421,426,431,436,441,446,451,455,461,466,470,476,481,486,491,496,501,506,510,516,521,527,531,536,540,546,551,555,561,566,571,576,581,586,591,595,601,606,610,616,621,626,631,636,641,646,651,655,661,666,670,676,681,686,691,696,701,706,710,716,721,726,731,736,741,746,750,756,761,766,771,776,781,786,790,796,801,807,811,816,820,826,831,835,841,846,850,856,861,866,871,875,881,886,890,896,901,906,911,916,921,926,931,935,941,945,951,956,961,966,971,975,981,986,990,996,1001,1006,1011,1016,1021,1026,1030,1036,1041,1046,1051,1056,1060,1066,1071,1075,1081,1086,1090,1096,1101,1106,1111,1116,1121,1126,1130,1136,1141,1146,1151,1156,1161,1166,1170,1176,1181,1185,1191,1196,1200,1206,1211,1215,1221,1226,1230,1236,1241,1246,1251,1255,1261,1266,1270,1276,1281,1286,1291,1295,1301,1306,1310,1316,1321,1327,1331,1336,1340,1346,1351,1355,1361,1366,1370,1376,1381,1386,1391,1395,1401,1406,1410,1416,1421,1427,1431,1436,1440,1446,1451,1455,1461,1466,1470,1476,1481,1486,1491,1495,1501,1506,1510,1516,1521,1526,1531,1535,1541,1546,1550,1556,1561,1565,1571,1576,1581,1586,1591,1596,1601,1606,1611,1615,1621,1626,1631,1636,1640,1646,1651,1655,1661,1666,1670,1676,1681,1686,1691,1695,1701,1706,1710,1716,1721,1726,1731,1736,1741,1746,1750,1756,1761,1767,1771,1776,1780,1786,1791,1795,1801,1806,1811,1816,1820,1826,1831,1835,1841,1846,1850,1856,1861,1866,1871,1875,1881,1886,1890,1895,1901,1906,1911,1916,1920,1926,1931,1935,1941,1946,1950,1956,1961,1966,1971,1975,1981,1986,1990,1996,2001,2007","401","easy","","","","","",""
"","mousetracking","39","55301","0.0-4.0-3.4","86","","","","","<div style=""font-size:60px;"">+</div>","","","rt_catch","FIX",",538,538,538,538,538,538,538,538,538,538,538,538,538,538,538,538,538",",296,296,296,296,296,296,296,296,296,296,296,296,296,296,296,296,296","0,5,11,15,21,26,31,36,41,46,51,56,60,66,71,75,81,86","17","easy","","","","","",""
"","mousetracking","40","55652","0.0-4.0-4.4","349","","","","","<div style=""font-size:60px;"">+</div>","","","rt_window","HIT",",538,538,538,538,538,538,538,538,538,538,538,538,538,538,538,538,538,538,538,538,538,538,538,538,538,538,538,538,538,538,538,538,538,538,538,538,538,538,538,538,538,538,538,538,538,538,538,538,538,538,538,538,538,538,538,538,538,538,538,538,538,538,538,538,538,538,538,538,538",",296,296,296,296,296,296,296,296,296,296,296,296,296,296,296,296,296,296,296,296,296,296,296,296,296,296,296,296,296,296,296,296,296,296,296,296,296,296,296,296,296,296,296,296,296,296,296,296,296,296,296,296,296,296,296,296,296,296,296,296,296,296,296,296,296,296,296,296,296","0,6,10,16,20,26,32,36,41,45,51,56,61,66,70,76,81,85,91,96,100,106,111,115,121,126,131,136,140,146,151,155,161,165,171,176,180,186,191,195,201,206,211,215,221,226,231,236,240,246,251,255,261,266,271,276,281,286,291,295,301,306,311,316,321,325,331,336,341,346","69","easy","","","","","",""
"","mousetracking","41","55762","0.0-4.0-5.4","110","","","","","<div style=""font-size:60px;"">+</div>","","","decision","ACQUIRE_TARG",",,,,579,579,579,579,579,579,579,579,579,579,579,579,579,579,579,579,678,678",",,,,360,360,360,360,360,360,360,360,360,360,360,360,360,360,360,360,474,474","0,6,11,16,21,26,31,36,41,47,52,56,61,66,71,76,81,86,91,96,101,106","21","easy","","","","","",""
"","mousetracking","42","56020","0.0-4.0-6.4","257","","","","","<div style=""font-size:60px;"">+</div>","","","targer_hold","SUCCESS",",684,684,684,684,684,684,684,684,684,684,684,684,684,684,684,684,684,684,684,684,684,684,684,684,684,684,684,684,684,684,684,684,684,684,684,684,684,684,684,684,684,684,684,684,684,684,684,684,684,684,684",",481,481,481,481,481,481,481,481,481,481,481,481,481,481,481,481,481,481,481,481,481,481,481,481,481,481,481,481,481,481,481,481,481,481,481,481,481,481,481,481,481,481,481,481,481,481,481,481,481,481,481","0,5,11,15,20,25,31,36,40,46,50,55,60,66,70,76,80,85,91,95,100,106,110,116,121,125,130,136,140,145,151,155,160,166,170,176,181,185,190,196,200,205,211,215,220,226,230,236,241,245,251,256","51","","20","","","","",""
"","html-keyboard-response","43","57026","0.0-4.0-7.4","null","","","","","<p style=color:green;>SUCCESS! + 20 points</p> SCORE: 120, Trial number: 5","null","","feedback","","","","","","easy","20","210","50","273.22330470336317,456.77669529663683","SUCCESS!",""
"","mousetracking","44","57335","0.0-4.0-0.5","307","","","","","<div style=""font-size:60px;"">+</div>","","","ITI","FIX",",523,523,523,523,523,523,523,523,523,523,523,523,523,523,523,523,523,523,523,523,523,523,523,523,523,523,523,523,523,523,523,523,523,523,523,523,523,523,523,523,523,523,523,523,523,523,523,523,523,523,523,523,523,523,523,523,523,523,523,523,523",",300,300,300,300,300,300,300,300,300,300,300,300,300,300,300,300,300,300,300,300,300,300,300,300,300,300,300,300,300,300,300,300,300,300,300,300,300,300,300,300,300,300,300,300,300,300,300,300,300,300,300,300,300,300,300,300,300,300,300,300,300","0,5,10,16,20,25,30,35,41,45,50,56,60,65,71,75,81,86,90,95,101,105,110,115,120,126,130,135,141,145,150,156,160,165,171,175,181,185,190,195,200,205,211,215,220,226,230,235,241,245,250,256,260,266,270,275,281,285,290,296,300,306","61","easy","","","","","",""
"","mousetracking","45","57839","0.0-4.0-1.5","504","","","","","<div style=""font-size:60px;"">+</div>","","","fixation","FIX",",523,523,523,523,523,523,523,523,523,523,523,523,523,523,523,523,523,523,523,523,523,523,523,523,523,523,523,523,523,523,523,523,523,523,523,523,523,523,523,523,523,523,523,523,523,523,523,523,523,523,523,523,523,523,523,523,523,523,523,523,523,523,523,523,523,523,523,523,523,523,523,523,523,523,523,523,523,523,523,523,523,523,523,523,523,523,523,523,523,523,523,523,523,523,523,523,523,523,523,523",",300,300,300,300,300,300,300,300,300,300,300,300,300,300,300,300,300,300,300,300,300,300,300,300,300,300,300,300,300,300,300,300,300,300,300,300,300,300,300,300,300,300,300,300,300,300,300,300,300,300,300,300,300,300,300,300,300,300,300,300,300,300,300,300,300,300,300,300,300,300,300,300,300,300,300,300,300,300,300,300,300,300,300,300,300,300,300,300,300,300,300,300,300,300,300,300,300,300,300,300","0,6,12,16,21,26,32,36,41,47,51,56,62,66,72,76,81,87,91,96,102,106,112,117,121,127,131,136,142,146,152,156,161,167,171,176,182,186,192,197,201,206,212,216,221,226,231,236,241,246,252,256,261,267,271,276,282,286,291,296,301,306,312,316,321,327,331,336,341,346,352,356,361,367,371,376,382,386,392,396,401,407,411,416,422,426,432,436,441,447,451,456,462,466,472,476,481,487,491,496,502","100","easy","","","","","",""
"","mousetracking","46","58648","0.0-4.0-2.5","808","","","","","<div style=""font-size:60px;"">+</div>","","","delay","FIX",",523,523,523,523,523,523,523,523,523,523,523,523,523,523,523,523,523,523,523,523,523,523,523,523,523,523,523,523,523,523,523,523,523,523,523,523,523,523,523,523,523,523,523,523,523,523,523,523,523,523,523,523,523,523,523,523,523,523,523,523,523,523,523,523,523,523,523,523,523,523,523,523,523,523,523,523,523,523,523,523,523,523,523,523,523,523,523,523,523,523,523,523,523,523,523,523,523,523,523,523,523,523,523,523,523,523,523,523,523,523,523,523,523,523,523,523,523,523,523,523,523,523,523,523,523,523,523,523,523,523,523,523,523,523,523,523,523,523,523,523,523,523,523,523,523,523,523,523,523,523,523,523,523,523,523,523,523,523,523,523,523",",300,300,300,300,300,300,300,300,300,300,300,300,300,300,300,300,300,300,300,300,300,300,300,300,300,300,300,300,300,300,300,300,300,300,300,300,300,300,300,300,300,300,300,300,300,300,300,300,300,300,300,300,300,300,300,300,300,300,300,300,300,300,300,300,300,300,300,300,300,300,300,300,300,300,300,300,300,300,300,300,300,300,300,300,300,300,300,300,300,300,300,300,300,300,300,300,300,300,300,300,300,300,300,300,300,300,300,300,300,300,300,300,300,300,300,300,300,300,300,300,300,300,300,300,300,300,300,300,300,300,300,300,300,300,300,300,300,300,300,300,300,300,300,300,300,300,300,300,300,300,300,300,300,300,300,300,300,300,300,300,300","0,6,11,15,21,26,31,36,41,46,51,55,61,66,71,76,82,86,91,95,101,106,112,116,121,126,131,136,141,146,152,156,161,166,171,176,181,186,192,196,201,206,211,216,221,226,232,236,241,246,251,256,261,266,272,276,281,286,291,296,301,307,311,316,322,326,332,337,341,347,351,356,362,366,372,376,381,387,391,396,402,406,412,416,421,426,431,436,442,446,452,456,461,467,471,476,482,486,492,496,501,506,511,517,521,527,531,536,541,546,552,556,561,567,571,576,580,586,592,596,601,606,611,616,621,626,632,636,641,647,651,656,661,666,671,676,681,686,692,696,700,706,711,716,721,726,732,736,741,747,751,756,761,766,772,776,781,787,791,796,801,806","161","easy","","","","","",""
"","mousetracking","47","58737","0.0-4.0-3.5","88","","","","","<div style=""font-size:60px;"">+</div>","","","rt_catch","FIX",",523,523,523,523,523,523,523,523,523,523,523,523,523,523,523,523,523",",300,300,300,300,300,300,300,300,300,300,300,300,300,300,300,300,300","0,6,11,15,21,25,31,36,40,46,51,55,61,66,71,76,81,86","17","easy","","","","","",""
"","mousetracking","48","59114","0.0-4.0-4.5","375","","","","","<div style=""font-size:60px;"">+</div>","","","rt_window","MISSED",",523,523,523,523,523,523,523,523,523,523,523,523,523,523,523,523,523,523,523,523,523,523,523,523,523,523,523,523,523,523,523,523,523,523,523,523,523,523,523,523,523,523,523,523,523,523,523,523,523,523,523,523,523,523,523,523,523,523,523,523,523,523,523,523,523,523,523,523,523,523,523,523,523,523",",300,300,300,300,300,300,300,300,300,300,300,300,300,300,300,300,300,300,300,300,300,300,300,300,300,300,300,300,300,300,300,300,300,300,300,300,300,300,300,300,300,300,300,300,300,300,300,300,300,300,300,300,300,300,300,300,300,300,300,300,300,300,300,300,300,300,300,300,300,300,300,300,300,300","0,5,11,15,21,26,31,36,41,46,51,56,60,66,70,75,81,86,91,96,101,105,111,116,120,126,131,135,141,146,151,156,160,166,171,176,181,185,191,196,200,206,211,215,221,226,231,236,241,245,251,256,260,266,271,275,280,286,290,295,301,305,311,316,320,326,331,335,341,346,351,356,361,366,371","74","easy","","","","","",""
"","mousetracking","49","59227","0.0-4.0-5.5","113","","","","","<div style=""font-size:60px;"">+</div>","","","decision","ACQUIRE_TARG",",,,,546,546,546,546,546,546,546,546,546,546,546,546,546,546,546,546,546,692,692",",,,,329,329,329,329,329,329,329,329,329,329,329,329,329,329,329,329,329,486,486","0,6,11,17,22,26,31,37,41,46,52,56,61,66,71,77,81,85,91,96,101,105,111","22","easy","","","","","",""
"","mousetracking","50","59285","0.0-4.0-6.5","57","","","","","<div style=""font-size:60px;"">+</div>","","","targer_hold","BROKE_TARG",",,702,702,702,702,702,702,702,702,702,702",",,496,496,496,496,496,496,496,496,496,496","0,5,10,15,20,26,30,36,41,45,51,55","11","","20","","","","",""
"","html-keyboard-response","51","60287","0.0-4.0-7.5","null","","","","","<p style=color:red;>TOO SLOW - 20 points</p> SCORE: 100, Trial number: 6","null","","feedback","","","","","","easy","20","230","50","273.22330470336317,456.77669529663683","MISSED",""
"","mousetracking","52","61975","0.0-4.0-0.6","1687","","","","","<div style=""font-size:60px;"">+</div>","","","ITI","FIX",",664,664,664,664,664,664,664,664,664,664,664,664,664,664,664,664,664,664,664,664,664,664,664,664,664,664,664,664,664,664,664,664,664,664,664,664,664,664,664,664,664,664,664,664,664,664,664,664,664,664,664,664,664,664,664,664,664,664,664,664,664,664,664,664,664,664,664,664,664,664,664,664,664,664,664,664,664,664,664,664,664,664,664,664,664,664,664,664,664,664,664,664,664,664,664,664,664,664,664,664,664,664,664,664,664,664,664,664,664,664,664,664,664,664,664,664,664,664,664,664,664,664,664,664,664,664,664,664,664,664,664,664,664,664,664,664,664,664,664,664,664,664,664,664,664,664,664,664,664,664,664,664,664,664,664,664,664,664,664,664,664,664,664,664,664,664,664,664,664,664,664,664,664,664,664,664,664,664,664,664,664,664,664,664,664,664,664,664,664,664,664,664,664,664,664,664,664,664,664,664,664,664,664,664,664,664,664,664,664,664,664,664,664,664,664,664,664,664,664,664,664,664,664,664,664,664,664,664,664,664,664,664,664,664,664,664,664,664,664,664,664,664,664,664,664,664,664,664,664,664,664,664,664,664,664,664,664,664,664,664,664,664,664,664,664,664,664,664,664,664,664,664,664,664,664,535,535,535,535,535,535,535,535,535,535,535,535,535,535,535,535,535,535,535,535,535,535,535,535,535,535,535,535,535,535,535,535,535,535,535,535,535,535,535,535,535,535,535,535,535,535,535,535,535,535,535,535,535,535,535,535,535,535,535,535,535,535",",399,399,399,399,399,399,399,399,399,399,399,399,399,399,399,399,399,399,399,399,399,399,399,399,399,399,399,399,399,399,399,399,399,399,399,399,399,399,399,399,399,399,399,399,399,399,399,399,399,399,399,399,399,399,399,399,399,399,399,399,399,399,399,399,399,399,399,399,399,399,399,399,399,399,399,399,399,399,399,399,399,399,399,399,399,399,399,399,399,399,399,399,399,399,399,399,399,399,399,399,399,399,399,399,399,399,399,399,399,399,399,399,399,399,399,399,399,399,399,399,399,399,399,399,399,399,399,399,399,399,399,399,399,399,399,399,399,399,399,399,399,399,399,399,399,399,399,399,399,399,399,399,399,399,399,399,399,399,399,399,399,399,399,399,399,399,399,399,399,399,399,399,399,399,399,399,399,399,399,399,399,399,399,399,399,399,399,399,399,399,399,399,399,399,399,399,399,399,399,399,399,399,399,399,399,399,399,399,399,399,399,399,399,399,399,399,399,399,399,399,399,399,399,399,399,399,399,399,399,399,399,399,399,399,399,399,399,399,399,399,399,399,399,399,399,399,399,399,399,399,399,399,399,399,399,399,399,399,399,399,399,399,399,399,399,399,399,399,399,399,399,399,399,399,399,321,321,321,321,321,321,321,321,321,321,321,321,321,321,321,321,321,321,321,321,321,321,321,321,321,321,321,321,321,321,321,321,321,321,321,321,321,321,321,321,321,321,321,321,321,321,321,321,321,321,321,321,321,321,321,321,321,321,321,321,321,321","0,6,11,16,21,26,32,36,41,46,51,55,61,66,71,76,81,86,91,95,101,106,112,115,121,125,131,136,140,146,150,155,161,165,171,176,181,186,191,196,201,206,211,215,221,226,231,236,241,246,251,255,261,265,271,276,280,286,291,295,301,305,311,316,320,326,331,335,341,345,351,356,360,366,371,375,381,386,391,396,401,406,411,415,421,426,431,436,440,446,451,455,461,466,471,476,480,486,491,495,501,505,511,516,520,526,531,535,541,545,551,556,560,566,571,575,581,585,591,596,600,606,611,615,621,625,631,636,641,646,651,656,661,666,671,675,681,686,691,696,701,706,711,715,721,726,732,736,741,745,751,756,760,766,771,776,780,786,791,796,801,806,811,816,820,826,830,835,841,846,850,856,861,866,870,876,880,886,891,896,901,905,911,916,920,926,930,936,941,946,952,955,961,966,970,976,980,985,991,995,1001,1005,1011,1016,1020,1026,1031,1036,1041,1046,1051,1056,1061,1066,1071,1075,1081,1086,1091,1096,1101,1106,1111,1115,1121,1126,1131,1136,1140,1146,1151,1155,1161,1166,1171,1176,1180,1186,1191,1195,1201,1205,1211,1216,1220,1226,1230,1235,1240,1246,1251,1255,1261,1265,1271,1275,1281,1286,1291,1296,1300,1306,1311,1315,1321,1326,1331,1335,1341,1346,1351,1355,1361,1366,1371,1375,1383,1386,1390,1395,1400,1405,1411,1416,1421,1426,1430,1436,1440,1446,1450,1455,1461,1466,1471,1476,1480,1486,1491,1496,1500,1506,1511,1515,1521,1526,1531,1536,1540,1546,1551,1556,1561,1566,1571,1576,1581,1586,1591,1596,1600,1606,1611,1616,1621,1626,1631,1635,1641,1646,1651,1656,1661,1666,1671,1675,1681,1685","337","easy","","","","","",""
"","mousetracking","53","62481","0.0-4.0-1.6","504","","","","","<div style=""font-size:60px;"">+</div>","","","fixation","FIX",",528,528,528,528,528,528,528,528,528,528,528,528,528,528,528,528,528,528,528,528,528,528,528,528,528,528,528,528,528,528,528,528,528,528,528,528,528,528,528,528,528,528,528,528,528,528,528,528,528,528,528,528,528,528,528,528,528,528,528,528,528,528,528,528,528,528,528,528,528,528,528,528,528,528,528,528,528,528,528,528,528,528,528,528,528,528,528,528,528,528,528,528,528,528,528,528,528,528,528,528",",309,309,309,309,309,309,309,309,309,309,309,309,309,309,309,309,309,309,309,309,309,309,309,309,309,309,309,309,309,309,309,309,309,309,309,309,309,309,309,309,309,309,309,309,309,309,309,309,309,309,309,309,309,309,309,309,309,309,309,309,309,309,309,309,309,309,309,309,309,309,309,309,309,309,309,309,309,309,309,309,309,309,309,309,309,309,309,309,309,309,309,309,309,309,309,309,309,309,309,309","0,5,11,16,20,26,31,35,41,46,51,56,60,66,71,75,81,86,91,96,100,105,111,116,120,126,130,136,141,145,151,156,160,166,171,175,181,185,191,196,201,206,211,215,221,226,230,236,241,245,251,256,260,266,271,275,281,285,291,296,300,306,311,315,321,326,330,336,341,345,351,356,360,366,370,376,381,385,391,396,400,406,411,415,421,425,431,436,440,446,451,455,461,466,471,476,480,486,491,495,501","100","easy","","","","","",""
"","mousetracking","54","63208","0.0-4.0-2.6","726","","","","","<div style=""font-size:60px;"">+</div>","","","delay","FIX",",528,528,528,528,528,528,528,528,528,528,528,528,528,528,528,528,528,528,528,528,528,528,528,528,528,528,528,528,528,528,528,528,528,528,528,528,528,528,528,528,528,528,528,528,528,528,528,528,528,528,528,528,528,528,528,528,528,528,528,528,528,528,528,528,528,528,528,528,528,528,528,528,528,528,528,528,528,528,528,528,528,528,528,528,528,528,528,528,528,528,528,528,528,528,528,528,528,528,528,528,528,528,528,528,528,528,528,528,528,528,528,528,528,528,528,528,528,528,528,528,528,528,528,528,528,528,528,528,528,528,528,528,528,528,528,528,528,528,528,528,528,528,528,528,528",",309,309,309,309,309,309,309,309,309,309,309,309,309,309,309,309,309,309,309,309,309,309,309,309,309,309,309,309,309,309,309,309,309,309,309,309,309,309,309,309,309,309,309,309,309,309,309,309,309,309,309,309,309,309,309,309,309,309,309,309,309,309,309,309,309,309,309,309,309,309,309,309,309,309,309,309,309,309,309,309,309,309,309,309,309,309,309,309,309,309,309,309,309,309,309,309,309,309,309,309,309,309,309,309,309,309,309,309,309,309,309,309,309,309,309,309,309,309,309,309,309,309,309,309,309,309,309,309,309,309,309,309,309,309,309,309,309,309,309,309,309,309,309,309,309","0,6,10,15,20,26,31,35,41,45,50,56,61,65,71,75,80,86,90,95,101,105,110,115,121,125,130,136,140,146,150,155,161,165,170,176,180,185,190,196,200,206,210,215,221,225,230,236,240,245,251,255,260,266,270,276,280,286,291,295,301,306,310,315,321,325,331,335,340,346,350,355,360,366,370,376,381,385,390,396,400,406,411,415,421,426,430,435,441,445,450,456,460,465,471,475,481,486,490,496,501,505,510,515,520,526,530,535,541,545,550,556,560,566,571,575,580,586,590,595,601,605,611,615,620,626,630,635,641,645,650,656,660,666,671,675,681,686,690,695,701,705,710,716,720,726","145","easy","","","","","",""
"","mousetracking","55","63297","0.0-4.0-3.6","87","","","","","<div style=""font-size:60px;"">+</div>","","","rt_catch","FIX",",528,528,528,528,528,528,528,528,528,528,528,528,528,528,528,528,528",",309,309,309,309,309,309,309,309,309,309,309,309,309,309,309,309,309","0,6,12,16,21,26,31,36,41,46,52,57,61,67,71,76,80,86","17","easy","","","","","",""
"","mousetracking","56","63618","0.0-4.0-4.6","320","","","","","<div style=""font-size:60px;"">+</div>","","","rt_window","HIT",",528,528,528,528,528,528,528,528,528,528,528,528,528,528,528,528,528,528,528,528,528,528,528,528,528,528,528,528,528,528,528,528,528,528,528,528,528,528,528,528,528,528,528,528,528,528,528,528,528,528,528,528,528,528,528,528,528,528,528,528,528,528,528",",309,309,309,309,309,309,309,309,309,309,309,309,309,309,309,309,309,309,309,309,309,309,309,309,309,309,309,309,309,309,309,309,309,309,309,309,309,309,309,309,309,309,309,309,309,309,309,309,309,309,309,309,309,309,309,309,309,309,309,309,309,309,309","0,6,11,15,21,26,31,36,40,46,51,55,61,66,71,76,80,86,91,95,101,106,111,116,120,126,131,135,141,146,151,156,161,165,171,176,180,186,191,196,201,206,211,216,220,226,230,235,241,245,251,256,260,266,271,275,281,285,290,295,301,306,310,316","63","easy","","","","","",""
"","mousetracking","57","63710","0.0-4.0-5.6","91","","","","","<div style=""font-size:60px;"">+</div>","","","decision","ACQUIRE_TARG",",,,477,477,477,477,477,477,477,477,477,477,477,477,477,477,356,356",",,,268,268,268,268,268,268,268,268,268,268,268,268,268,268,146,146","0,6,12,16,21,26,32,36,42,46,51,56,61,66,72,76,81,87,91","18","easy","","","","","",""
"","mousetracking","58","63972","0.0-4.0-6.6","260","","","","","<div style=""font-size:60px;"">+</div>","","","targer_hold","SUCCESS",",,347,347,347,347,347,347,347,347,347,347,347,347,347,347,347,347,347,347,347,347,347,347,347,347,347,347,347,347,347,347,347,347,347,347,347,347,347,347,347,347,347,347,347,347,347,347,347,347,347,347",",,136,136,136,136,136,136,136,136,136,136,136,136,136,136,136,136,136,136,136,136,136,136,136,136,136,136,136,136,136,136,136,136,136,136,136,136,136,136,136,136,136,136,136,136,136,136,136,136,136,136","0,5,10,16,21,26,31,36,40,46,50,56,61,65,71,76,81,86,90,96,100,106,110,116,121,125,131,136,140,146,151,155,161,165,171,176,181,186,191,196,200,206,210,216,221,225,231,236,240,245,251,256","51","","20","","","","",""
"","html-keyboard-response","59","64976","0.0-4.0-7.6","null","","","","","<p style=color:green;>SUCCESS! + 20 points</p> SCORE: 120, Trial number: 7","null","","feedback","","","","","","easy","20","220","50","626.7766952966368,103.22330470336314","SUCCESS!",""
"","mousetracking","60","65285","0.0-4.0-0.7","307","","","","","<div style=""font-size:60px;"">+</div>","","","ITI","FIX",",511,511,511,511,511,511,511,511,511,511,511,511,511,511,511,511,511,511,511,511,511,511,511,511,511,511,511,511,511,511,511,511,511,511,511,511,511,511,511,511,511,511,511,511,511,511,511,511,511,511,511,511,511,511,511,511,511,511,511,511,511",",306,306,306,306,306,306,306,306,306,306,306,306,306,306,306,306,306,306,306,306,306,306,306,306,306,306,306,306,306,306,306,306,306,306,306,306,306,306,306,306,306,306,306,306,306,306,306,306,306,306,306,306,306,306,306,306,306,306,306,306,306","0,6,12,16,21,26,31,36,41,46,52,56,61,66,71,76,81,86,92,96,101,107,111,116,121,126,132,136,141,147,151,156,162,166,171,177,181,186,191,196,201,206,211,215,221,226,232,236,241,246,251,255,261,266,272,276,281,286,291,296,301,306","61","easy","","","","","",""
"","mousetracking","61","65791","0.0-4.0-1.7","506","","","","","<div style=""font-size:60px;"">+</div>","","","fixation","FIX",",511,511,511,511,511,511,511,511,511,511,511,511,511,511,511,511,511,511,511,511,511,511,511,511,511,511,511,511,511,511,511,511,511,511,511,511,511,511,511,511,511,511,511,511,511,511,511,511,511,511,511,511,511,511,511,511,511,511,511,511,511,511,511,511,511,511,511,511,511,511,511,511,511,511,511,511,511,511,511,511,511,511,511,511,511,511,511,511,511,511,511,511,511,511,511,511,511,511,511,511,511",",306,306,306,306,306,306,306,306,306,306,306,306,306,306,306,306,306,306,306,306,306,306,306,306,306,306,306,306,306,306,306,306,306,306,306,306,306,306,306,306,306,306,306,306,306,306,306,306,306,306,306,306,306,306,306,306,306,306,306,306,306,306,306,306,306,306,306,306,306,306,306,306,306,306,306,306,306,306,306,306,306,306,306,306,306,306,306,306,306,306,306,306,306,306,306,306,306,306,306,306,306","0,5,11,16,21,26,31,36,41,46,50,56,61,67,71,76,80,86,91,95,101,106,110,116,121,126,131,136,141,146,151,156,161,166,171,176,181,186,191,196,201,206,211,216,221,226,231,236,241,246,251,256,261,267,271,276,281,286,291,296,301,307,311,316,321,326,331,336,341,347,351,355,361,366,371,376,381,387,391,396,401,406,410,416,421,426,431,436,441,447,451,456,461,466,471,476,481,487,491,496,501,506","101","easy","","","","","",""
"","mousetracking","62","66393","0.0-4.0-2.7","600","","","","","<div style=""font-size:60px;"">+</div>","","","delay","FIX",",525,525,525,525,525,525,525,525,525,525,525,525,525,525,525,525,525,525,525,525,525,525,525,525,525,525,525,525,525,525,525,525,525,525,525,525,525,525,525,525,525,525,525,525,525,525,525,525,525,525,525,525,525,525,525,525,525,525,525,525,525,525,525,525,525,525,525,525,525,525,525,525,525,525,525,525,525,525,525,525,525,525,525,525,525,525,525,525,525,525,525,525,525,525,525,525,525,525,525,525,525,525,525,525,525,525,525,525,525,525,525,525,525,525,525,525,525,525,525",",308,308,308,308,308,308,308,308,308,308,308,308,308,308,308,308,308,308,308,308,308,308,308,308,308,308,308,308,308,308,308,308,308,308,308,308,308,308,308,308,308,308,308,308,308,308,308,308,308,308,308,308,308,308,308,308,308,308,308,308,308,308,308,308,308,308,308,308,308,308,308,308,308,308,308,308,308,308,308,308,308,308,308,308,308,308,308,308,308,308,308,308,308,308,308,308,308,308,308,308,308,308,308,308,308,308,308,308,308,308,308,308,308,308,308,308,308,308,308","0,6,11,16,22,26,32,36,41,46,51,56,61,66,71,76,81,87,91,96,101,106,112,116,121,127,131,136,142,146,152,156,161,167,171,176,182,186,192,197,201,206,211,216,221,226,231,235,241,246,251,256,261,266,271,275,281,286,292,296,301,306,311,316,321,326,332,336,341,347,351,356,361,366,372,376,381,386,391,396,401,406,412,416,421,426,431,436,441,446,452,456,461,467,471,476,481,486,492,496,501,506,511,516,521,526,532,536,541,547,551,556,561,566,572,576,581,587,591,595","119","easy","","","","","",""
"","mousetracking","63","66482","0.0-4.0-3.7","87","","","","","<div style=""font-size:60px;"">+</div>","","","rt_catch","FIX",",525,525,525,525,525,525,525,525,525,525,525,525,525,525,525,525,525",",308,308,308,308,308,308,308,308,308,308,308,308,308,308,308,308,308","0,5,11,15,20,26,30,35,41,45,51,55,60,66,70,75,80,85","17","easy","","","","","",""
"","mousetracking","64","66852","0.0-4.0-4.7","368","","","","","<div style=""font-size:60px;"">+</div>","","","rt_window","HIT",",525,525,525,525,525,525,525,525,525,525,525,525,525,525,525,525,525,525,525,525,525,525,525,525,525,525,525,525,525,525,525,525,525,525,525,525,525,525,525,525,525,525,525,525,525,525,525,525,525,525,525,525,525,525,525,525,525,525,525,525,525,525,525,525,525,525,525,525,525,525,525,525,525",",308,308,308,308,308,308,308,308,308,308,308,308,308,308,308,308,308,308,308,308,308,308,308,308,308,308,308,308,308,308,308,308,308,308,308,308,308,308,308,308,308,308,308,308,308,308,308,308,308,308,308,308,308,308,308,308,308,308,308,308,308,308,308,308,308,308,308,308,308,308,308,308,308","0,5,11,15,20,26,30,35,41,45,50,56,60,66,71,75,81,86,90,95,101,105,110,116,120,126,130,135,141,145,150,156,160,166,171,175,180,186,190,195,201,205,210,216,220,226,231,235,241,246,250,256,261,265,270,276,280,286,290,295,300,306,311,315,320,325,330,335,341,345,350,355,360,366","73","easy","","","","","",""
"","mousetracking","65","66944","0.0-4.0-5.7","91","","","","","<div style=""font-size:60px;"">+</div>","","","decision","ACQUIRE_TARG",",,,459,459,459,459,459,459,459,459,459,459,459,459,459,459,364,364",",,,239,239,239,239,239,239,239,239,239,239,239,239,239,239,131,131","0,5,11,15,20,25,31,35,40,46,50,56,60,65,70,76,80,85,90","18","easy","","","","","",""
"","mousetracking","66","67205","0.0-4.0-6.7","260","","","","","<div style=""font-size:60px;"">+</div>","","","targer_hold","SUCCESS",",356,356,356,356,356,356,356,356,356,356,356,356,356,356,356,356,356,356,356,356,356,356,356,356,356,356,356,356,356,356,356,356,356,356,356,356,356,356,356,356,356,356,356,356,356,356,356,356,356,356,356",",125,125,125,125,125,125,125,125,125,125,125,125,125,125,125,125,125,125,125,125,125,125,125,125,125,125,125,125,125,125,125,125,125,125,125,125,125,125,125,125,125,125,125,125,125,125,125,125,125,125,125","0,7,11,16,21,25,31,36,41,45,51,56,61,65,71,76,80,86,91,96,101,105,111,116,120,126,130,136,141,145,151,156,160,166,171,176,181,185,191,196,200,206,210,216,221,225,231,236,240,246,251,256","51","","20","","","","",""
"","html-keyboard-response","67","68211","0.0-4.0-7.7","null","","","","","<p style=color:green;>SUCCESS! + 20 points</p> SCORE: 140, Trial number: 8","null","","feedback","","","","","","easy","20","210","50","626.7766952966368,103.22330470336314","SUCCESS!",""
"","mousetracking","68","68519","0.0-4.0-0.8","307","","","","","<div style=""font-size:60px;"">+</div>","","","ITI","FIX",",526,526,526,526,526,526,526,526,526,526,526,526,526,526,526,526,526,526,526,526,526,526,526,526,526,526,526,526,526,526,526,526,526,526,526,526,526,526,526,526,526,526,526,526,526,526,526,526,526,526,526,526,526,526,526,526,526,526,526,526,526",",308,308,308,308,308,308,308,308,308,308,308,308,308,308,308,308,308,308,308,308,308,308,308,308,308,308,308,308,308,308,308,308,308,308,308,308,308,308,308,308,308,308,308,308,308,308,308,308,308,308,308,308,308,308,308,308,308,308,308,308,308","0,5,10,16,20,26,30,35,41,45,50,55,60,66,71,75,80,86,90,95,101,105,110,116,120,126,131,135,140,146,150,155,160,165,170,175,180,186,190,195,201,205,210,216,220,226,231,235,240,246,250,255,260,265,270,275,280,286,290,295,301,305","61","easy","","","","","",""
"","mousetracking","69","69028","0.0-4.0-1.8","508","","","","","<div style=""font-size:60px;"">+</div>","","","fixation","FIX",",526,526,526,526,526,526,526,526,526,526,526,526,526,526,526,526,526,526,526,526,526,526,526,526,526,526,526,526,526,526,526,526,526,526,526,526,526,526,526,526,526,526,526,526,526,526,526,526,526,526,526,526,526,526,526,526,526,526,526,526,526,526,526,526,526,526,526,526,526,526,526,526,526,526,526,526,526,526,526,526,526,526,526,526,526,526,526,526,526,526,526,526,526,526,526,526,526,526,526,526,526",",308,308,308,308,308,308,308,308,308,308,308,308,308,308,308,308,308,308,308,308,308,308,308,308,308,308,308,308,308,308,308,308,308,308,308,308,308,308,308,308,308,308,308,308,308,308,308,308,308,308,308,308,308,308,308,308,308,308,308,308,308,308,308,308,308,308,308,308,308,308,308,308,308,308,308,308,308,308,308,308,308,308,308,308,308,308,308,308,308,308,308,308,308,308,308,308,308,308,308,308,308","0,5,11,16,20,26,30,35,41,45,51,56,60,66,71,75,81,86,91,96,100,106,111,115,120,126,131,136,140,146,151,155,160,166,171,176,181,185,191,195,200,206,210,215,221,225,231,236,240,246,250,255,261,265,271,276,280,286,290,295,301,305,311,316,320,326,330,335,341,345,351,356,360,366,370,375,381,385,391,396,400,406,411,415,421,426,431,436,440,446,451,455,461,466,471,476,480,486,490,495,501,505","101","easy","","","","","",""
"","mousetracking","70","69889","0.0-4.0-2.8","860","","","","","<div style=""font-size:60px;"">+</div>","","","delay","FIX",",526,526,526,526,526,526,526,526,526,526,526,526,526,526,526,526,526,526,526,526,526,526,526,526,526,526,526,526,526,526,526,526,526,526,526,526,526,526,526,526,526,526,526,526,526,526,526,526,526,526,526,526,526,526,526,526,526,526,526,526,526,526,526,526,526,526,526,526,526,526,526,526,526,526,526,526,526,526,526,526,526,526,526,526,526,526,526,526,526,526,526,526,526,526,526,526,526,526,526,526,526,526,526,526,526,526,526,526,526,526,526,526,526,526,526,526,526,526,526,526,526,526,526,526,526,526,526,526,526,526,526,526,526,526,526,526,526,526,526,526,526,526,526,526,526,526,526,526,526,526,526,526,526,526,526,526,526,526,526,526,526,526,526,526,526,526,526,526,526,526,526",",308,308,308,308,308,308,308,308,308,308,308,308,308,308,308,308,308,308,308,308,308,308,308,308,308,308,308,308,308,308,308,308,308,308,308,308,308,308,308,308,308,308,308,308,308,308,308,308,308,308,308,308,308,308,308,308,308,308,308,308,308,308,308,308,308,308,308,308,308,308,308,308,308,308,308,308,308,308,308,308,308,308,308,308,308,308,308,308,308,308,308,308,308,308,308,308,308,308,308,308,308,308,308,308,308,308,308,308,308,308,308,308,308,308,308,308,308,308,308,308,308,308,308,308,308,308,308,308,308,308,308,308,308,308,308,308,308,308,308,308,308,308,308,308,308,308,308,308,308,308,308,308,308,308,308,308,308,308,308,308,308,308,308,308,308,308,308,308,308,308,308","0,6,11,16,21,26,31,36,40,46,51,55,61,66,71,76,81,86,91,95,101,105,111,116,120,126,131,135,141,145,151,156,160,166,171,175,181,185,191,196,200,206,211,215,221,225,231,236,241,246,252,256,261,266,271,276,281,286,292,295,301,305,311,316,320,326,331,335,341,346,351,356,360,366,371,375,381,386,391,396,400,406,411,415,421,426,431,436,440,446,451,455,461,465,471,476,480,486,491,495,501,505,511,516,520,526,531,535,541,546,551,556,561,566,571,575,581,586,591,596,601,606,611,615,621,626,631,636,641,646,651,656,661,666,671,676,681,685,691,696,700,706,711,715,721,725,731,736,740,746,751,755,761,766,771,776,781,786,791,796,800,806,811,815,821,825,831,836,841,846,852,856","171","easy","","","","","",""
"","mousetracking","71","69974","0.0-4.0-3.8","84","","","","","<div style=""font-size:60px;"">+</div>","","","rt_catch","FIX",",526,526,526,526,526,526,526,526,526,526,526,526,526,526,526,526",",308,308,308,308,308,308,308,308,308,308,308,308,308,308,308,308","0,6,11,16,21,26,31,36,40,46,51,55,61,66,71,76,80","16","easy","","","","","",""
"","mousetracking","72","70335","0.0-4.0-4.8","361","","","","","<div style=""font-size:60px;"">+</div>","","","rt_window","HIT",",526,526,526,526,526,526,526,526,526,526,526,526,526,526,526,526,526,526,526,526,526,526,526,526,526,526,526,526,526,526,526,526,526,526,526,526,526,526,526,526,526,526,526,526,526,526,526,526,526,526,526,526,526,526,526,526,526,526,526,526,526,526,526,526,526,526,526,526,526,526,526",",308,308,308,308,308,308,308,308,308,308,308,308,308,308,308,308,308,308,308,308,308,308,308,308,308,308,308,308,308,308,308,308,308,308,308,308,308,308,308,308,308,308,308,308,308,308,308,308,308,308,308,308,308,308,308,308,308,308,308,308,308,308,308,308,308,308,308,308,308,308,308","0,6,12,16,21,27,31,37,41,46,52,56,61,66,71,76,81,86,91,97,101,106,112,116,121,127,131,136,141,146,151,156,161,167,171,176,182,186,191,197,201,206,211,216,221,226,231,237,241,246,252,256,261,266,271,276,281,286,292,296,301,307,311,316,320,326,331,336,341,347,351,356","71","easy","","","","","",""
"","mousetracking","73","70461","0.0-4.0-5.8","125","","","","","<div style=""font-size:60px;"">+</div>","","","decision","ACQUIRE_TARG",",,,555,555,555,555,555,555,555,555,555,555,555,555,555,555,555,555,555,555,555,555,658,658",",,,348,348,348,348,348,348,348,348,348,348,348,348,348,348,348,348,348,348,348,348,462,462","0,6,11,16,21,26,31,36,41,46,51,56,61,66,71,76,82,86,91,96,101,105,111,117,120","24","easy","","","","","",""
"","mousetracking","74","70723","0.0-4.0-6.8","260","","","","","<div style=""font-size:60px;"">+</div>","","","targer_hold","SUCCESS",",,659,659,659,659,659,659,659,659,659,659,659,659,659,659,659,659,659,659,659,659,659,659,659,659,659,659,659,659,659,659,659,659,659,659,659,659,659,659,659,659,659,659,659,659,659,659,659,659,659,659",",,464,464,464,464,464,464,464,464,464,464,464,464,464,464,464,464,464,464,464,464,464,464,464,464,464,464,464,464,464,464,464,464,464,464,464,464,464,464,464,464,464,464,464,464,464,464,464,464,464,464","0,6,10,16,21,26,31,36,41,46,51,56,61,65,71,75,80,86,90,96,101,105,111,116,120,126,131,136,141,146,151,156,160,166,171,175,180,186,190,196,201,205,211,215,220,226,230,236,241,245,251,256","51","","50","","","","",""
"","html-keyboard-response","75","71728","0.0-4.0-7.8","null","","","","","<p style=color:green;>SUCCESS! + 50 points</p> SCORE: 190, Trial number: 9","null","","feedback","","","","","","easy","50","230","100","273.22330470336317,456.77669529663683","SUCCESS!",""
"","mousetracking","76","72033","0.0-4.0-0.9","304","","","","","<div style=""font-size:60px;"">+</div>","","","ITI","FIX",",526,526,526,526,526,526,526,526,526,526,526,526,526,526,526,526,526,526,526,526,526,526,526,526,526,526,526,526,526,526,526,526,526,526,526,526,526,526,526,526,526,526,526,526,526,526,526,526,526,526,526,526,526,526,526,526,526,526,526,526",",295,295,295,295,295,295,295,295,295,295,295,295,295,295,295,295,295,295,295,295,295,295,295,295,295,295,295,295,295,295,295,295,295,295,295,295,295,295,295,295,295,295,295,295,295,295,295,295,295,295,295,295,295,295,295,295,295,295,295,295","0,6,10,16,21,26,30,36,41,47,51,56,60,66,71,75,81,86,90,96,101,106,111,116,120,126,131,135,141,146,150,156,161,166,171,176,181,186,191,195,201,206,210,216,221,226,231,236,240,246,251,255,261,266,270,276,281,286,291,296,300","60","easy","","","","","",""
"","mousetracking","77","72541","0.0-4.0-1.9","507","","","","","<div style=""font-size:60px;"">+</div>","","","fixation","FIX",",526,526,526,526,526,526,526,526,526,526,526,526,526,526,526,526,526,526,526,526,526,526,526,526,526,526,526,526,526,526,526,526,526,526,526,526,526,526,526,526,526,526,526,526,526,526,526,526,526,526,526,526,526,526,526,526,526,526,526,526,526,526,526,526,526,526,526,526,526,526,526,526,526,526,526,526,526,526,526,526,526,526,526,526,526,526,526,526,526,526,526,526,526,526,526,526,526,526,526,526,526",",295,295,295,295,295,295,295,295,295,295,295,295,295,295,295,295,295,295,295,295,295,295,295,295,295,295,295,295,295,295,295,295,295,295,295,295,295,295,295,295,295,295,295,295,295,295,295,295,295,295,295,295,295,295,295,295,295,295,295,295,295,295,295,295,295,295,295,295,295,295,295,295,295,295,295,295,295,295,295,295,295,295,295,295,295,295,295,295,295,295,295,295,295,295,295,295,295,295,295,295,295","0,5,11,16,21,25,31,36,41,46,50,56,61,65,71,76,80,86,90,95,101,106,111,116,120,126,131,135,141,145,150,156,160,166,171,175,181,186,190,196,201,205,211,216,220,226,231,235,241,246,250,256,260,266,271,275,281,286,291,295,301,305,310,316,320,326,331,335,341,346,350,356,361,365,371,376,380,386,391,395,401,405,410,416,421,425,431,435,441,445,450,456,460,466,471,476,480,486,490,496,501,505","101","easy","","","","","",""
"","mousetracking","78","73342","0.0-4.0-2.9","800","","","","","<div style=""font-size:60px;"">+</div>","","","delay","FIX",",526,526,526,526,526,526,526,526,526,526,526,526,526,526,526,526,526,526,526,526,526,526,526,526,526,526,526,526,526,526,526,526,526,526,526,526,526,526,526,526,526,526,526,526,526,526,526,526,526,526,526,526,526,526,526,526,526,526,526,526,526,526,526,526,526,526,526,526,526,526,526,526,526,526,526,526,526,526,526,526,526,526,526,526,526,526,526,526,526,526,526,526,526,526,526,526,526,526,526,526,526,526,526,526,526,526,526,526,526,526,526,526,526,526,526,526,526,526,526,526,526,526,526,526,526,526,526,526,526,526,526,526,526,526,526,526,526,526,526,526,526,526,526,526,526,526,526,526,526,526,526,526,526,526,526,526,526,526,526",",295,295,295,295,295,295,295,295,295,295,295,295,295,295,295,295,295,295,295,295,295,295,295,295,295,295,295,295,295,295,295,295,295,295,295,295,295,295,295,295,295,295,295,295,295,295,295,295,295,295,295,295,295,295,295,295,295,295,295,295,295,295,295,295,295,295,295,295,295,295,295,295,295,295,295,295,295,295,295,295,295,295,295,295,295,295,295,295,295,295,295,295,295,295,295,295,295,295,295,295,295,295,295,295,295,295,295,295,295,295,295,295,295,295,295,295,295,295,295,295,295,295,295,295,295,295,295,295,295,295,295,295,295,295,295,295,295,295,295,295,295,295,295,295,295,295,295,295,295,295,295,295,295,295,295,295,295,295,295","0,5,10,16,21,26,31,35,41,46,50,55,61,65,71,76,80,86,91,95,101,106,111,116,120,126,131,135,141,146,151,156,161,165,171,176,180,186,191,195,201,206,212,216,221,226,231,235,240,246,251,256,261,266,271,275,281,286,291,296,301,306,311,315,321,326,331,336,341,345,351,356,361,366,371,376,381,386,391,396,401,406,411,416,421,425,431,436,441,446,451,456,461,466,471,476,480,486,491,495,501,505,511,516,520,526,530,535,541,545,551,556,560,566,571,575,581,585,591,596,600,606,611,615,621,626,631,636,641,646,651,655,661,666,671,676,681,686,691,696,701,706,712,715,721,725,731,736,740,746,751,755,761,765,771,776,780,786,791,795","159","easy","","","","","",""
"","mousetracking","79","73428","0.0-4.0-3.9","85","","","","","<div style=""font-size:60px;"">+</div>","","","rt_catch","FIX",",526,526,526,526,526,526,526,526,526,526,526,526,526,526,526,526",",295,295,295,295,295,295,295,295,295,295,295,295,295,295,295,295","0,6,12,16,21,26,31,36,41,46,51,56,61,66,72,75,81","16","easy","","","","","",""
"","mousetracking","80","73752","0.0-4.0-4.9","322","","","","","<div style=""font-size:60px;"">+</div>","","","rt_window","HIT",",526,526,526,526,526,526,526,526,526,526,526,526,526,526,526,526,526,526,526,526,526,526,526,526,526,526,526,526,526,526,526,526,526,526,526,526,526,526,526,526,526,526,526,526,526,526,526,526,526,526,526,526,526,526,526,526,526,526,526,526,526,526,526,526",",295,295,295,295,295,295,295,295,295,295,295,295,295,295,295,295,295,295,295,295,295,295,295,295,295,295,295,295,295,295,295,295,295,295,295,295,295,295,295,295,295,295,295,295,295,295,295,295,295,295,295,295,295,295,295,295,295,295,295,295,295,295,295,295","0,5,10,16,20,25,31,35,40,45,50,56,60,65,71,75,80,86,90,96,100,105,110,115,120,126,130,135,141,145,150,156,160,165,170,175,180,186,190,195,201,205,210,216,220,225,231,235,240,246,250,255,260,265,270,275,280,285,291,295,300,306,310,316,320","64","easy","","","","","",""
"","mousetracking","81","73862","0.0-4.0-5.9","109","","","","","<div style=""font-size:60px;"">+</div>","","","decision","ACQUIRE_TARG",",,,482,482,482,482,482,482,482,482,482,482,482,482,482,482,482,482,482,357,357",",,,262,262,262,262,262,262,262,262,262,262,262,262,262,262,262,262,262,176,176","0,5,11,15,20,26,30,36,40,45,50,55,60,65,70,75,80,85,90,96,100,105","21","easy","","","","","",""
"","mousetracking","82","74122","0.0-4.0-6.9","259","","","","","<div style=""font-size:60px;"">+</div>","","","targer_hold","SUCCESS",",348,348,348,348,348,348,348,348,348,348,348,348,348,348,348,348,348,348,348,348,348,348,348,348,348,348,348,348,348,348,348,348,348,348,348,348,348,348,348,348,348,348,348,348,348,348,348,348,348,348,348",",171,171,171,171,171,171,171,171,171,171,171,171,171,171,171,171,171,171,171,171,171,171,171,171,171,171,171,171,171,171,171,171,171,171,171,171,171,171,171,171,171,171,171,171,171,171,171,171,171,171,171","0,5,11,16,21,26,30,36,41,46,51,55,61,65,71,76,81,85,90,96,100,105,111,116,120,125,131,136,140,146,151,155,161,166,171,176,180,186,191,195,201,206,210,216,221,225,231,236,240,246,251,255","51","","50","","","","",""
"","html-keyboard-response","83","75124","0.0-4.0-7.9","null","","","","","<p style=color:green;>SUCCESS! + 50 points</p> SCORE: 240, Trial number: 10","null","","feedback","","","","","","easy","50","230","100","626.7766952966368,103.22330470336314","SUCCESS!",""
"","mousetracking","84","75791","0.0-4.0-0.10","665","","","","","<div style=""font-size:60px;"">+</div>","","","ITI","FIX",",553,553,553,553,553,553,553,553,553,553,553,553,553,553,553,553,553,553,553,553,553,553,553,553,553,553,553,553,553,553,553,553,553,553,553,553,553,553,553,553,553,553,553,553,553,553,553,553,553,553,553,553,553,553,553,553,553,553,553,553,553,553,553,553,553,553,553,553,553,553,553,547,547,547,547,547,547,547,547,547,547,547,547,547,547,547,547,547,547,547,547,547,547,547,547,547,547,547,547,547,547,547,547,547,547,547,547,547,547,547,547,547,547,547,547,547,547,547,547,547,547,547,547,547,547,547,547,547,547,547,547,547,547",",314,314,314,314,314,314,314,314,314,314,314,314,314,314,314,314,314,314,314,314,314,314,314,314,314,314,314,314,314,314,314,314,314,314,314,314,314,314,314,314,314,314,314,314,314,314,314,314,314,314,314,314,314,314,314,314,314,314,314,314,314,314,314,314,314,314,314,314,314,314,314,314,314,314,314,314,314,314,314,314,314,314,314,314,314,314,314,314,314,314,314,314,314,314,314,314,314,314,314,314,314,314,314,314,314,314,314,314,314,314,314,314,314,314,314,314,314,314,314,314,314,314,314,314,314,314,314,314,314,314,314,314,314","0,5,10,15,20,26,30,35,40,46,51,55,61,66,70,76,80,86,91,95,101,106,110,115,121,125,130,136,140,146,150,155,161,165,170,176,180,186,190,195,201,205,210,216,220,226,230,235,241,245,250,255,260,266,270,276,280,286,291,295,300,306,310,316,320,326,331,335,341,346,350,356,360,365,370,375,381,386,390,395,400,406,410,416,421,425,430,436,440,446,450,455,460,466,470,475,480,486,491,495,501,505,510,515,520,526,530,535,541,546,551,555,561,566,570,576,580,586,591,595,600,606,610,615,621,625,630,635,640,646,650,655,661,665","133","easy","","","","","",""
"","mousetracking","85","76296","0.0-4.0-1.10","505","","","","","<div style=""font-size:60px;"">+</div>","","","fixation","FIX",",539,539,539,539,539,539,539,539,539,539,539,539,539,539,539,539,539,539,539,539,539,539,539,539,539,539,539,539,539,539,539,539,539,539,539,539,539,539,539,539,539,539,539,539,539,539,539,539,539,539,539,539,539,539,539,539,539,539,539,539,539,539,539,539,539,539,539,539,539,539,539,539,539,539,539,539,539,539,539,539,539,539,539,539,539,539,539,539,539,539,539,539,539,539,539,539,539,539,539,539",",311,311,311,311,311,311,311,311,311,311,311,311,311,311,311,311,311,311,311,311,311,311,311,311,311,311,311,311,311,311,311,311,311,311,311,311,311,311,311,311,311,311,311,311,311,311,311,311,311,311,311,311,311,311,311,311,311,311,311,311,311,311,311,311,311,311,311,311,311,311,311,311,311,311,311,311,311,311,311,311,311,311,311,311,311,311,311,311,311,311,311,311,311,311,311,311,311,311,311,311","0,6,11,16,21,26,32,36,41,46,51,57,61,66,72,76,81,87,91,97,102,106,112,116,121,127,131,136,142,146,152,156,161,167,171,176,182,186,192,196,201,207,211,216,221,226,231,236,241,246,251,256,261,266,271,277,281,286,291,296,301,306,311,317,321,326,332,336,341,346,351,357,361,366,372,376,381,387,391,396,401,406,411,417,421,426,431,436,441,446,451,457,461,466,472,476,481,487,491,496,502","100","easy","","","","","",""
"","mousetracking","86","77161","0.0-4.0-2.10","864","","","","","<div style=""font-size:60px;"">+</div>","","","delay","FIX",",539,539,539,539,539,539,539,539,539,539,539,539,539,539,539,539,539,539,539,539,539,539,539,539,539,539,539,539,539,539,539,539,539,539,539,539,539,539,539,539,539,539,539,539,539,539,539,539,539,539,539,539,539,539,539,539,539,539,539,539,539,539,539,539,539,539,539,539,539,539,539,539,539,539,539,539,539,539,539,539,539,539,539,539,539,539,539,539,539,539,539,539,539,539,539,539,539,539,539,539,539,539,539,539,539,539,539,539,539,539,539,539,539,539,539,539,539,539,539,539,539,539,539,539,539,539,539,539,539,539,539,539,539,539,539,539,539,539,539,539,539,539,539,539,539,539,539,539,539,539,539,539,539,539,539,539,539,539,539,539,539,539,539,539,539,539,539,539,539,539,539,539",",311,311,311,311,311,311,311,311,311,311,311,311,311,311,311,311,311,311,311,311,311,311,311,311,311,311,311,311,311,311,311,311,311,311,311,311,311,311,311,311,311,311,311,311,311,311,311,311,311,311,311,311,311,311,311,311,311,311,311,311,311,311,311,311,311,311,311,311,311,311,311,311,311,311,311,311,311,311,311,311,311,311,311,311,311,311,311,311,311,311,311,311,311,311,311,311,311,311,311,311,311,311,311,311,311,311,311,311,311,311,311,311,311,311,311,311,311,311,311,311,311,311,311,311,311,311,311,311,311,311,311,311,311,311,311,311,311,311,311,311,311,311,311,311,311,311,311,311,311,311,311,311,311,311,311,311,311,311,311,311,311,311,311,311,311,311,311,311,311,311,311,311","0,6,11,16,21,27,31,36,41,46,52,56,61,67,71,76,81,86,92,96,101,107,111,116,121,126,132,136,141,147,151,156,161,166,172,176,181,187,191,196,201,206,212,216,221,227,231,236,241,246,252,256,261,267,271,276,281,286,292,296,301,307,311,316,322,326,331,335,341,346,351,356,361,366,371,376,381,386,392,396,401,406,411,416,421,426,432,436,441,447,451,456,462,466,472,476,481,487,491,496,502,506,512,516,521,527,531,536,541,546,552,556,561,567,571,576,581,586,592,596,601,607,611,616,621,626,632,636,641,647,651,656,661,666,672,676,681,687,691,696,702,706,712,716,721,727,731,736,742,746,752,756,761,767,771,776,782,786,792,796,801,807,811,816,822,826,832,836,841,847,851,856,862","172","easy","","","","","",""
"","mousetracking","87","77250","0.0-4.0-3.10","88","","","","","<div style=""font-size:60px;"">+</div>","","","rt_catch","FIX",",539,539,539,539,539,539,539,539,539,539,539,539,539,539,539,539,539",",311,311,311,311,311,311,311,311,311,311,311,311,311,311,311,311,311","0,6,12,16,21,26,32,36,41,47,51,56,61,66,72,76,81,87","17","easy","","","","","",""
"","mousetracking","88","77535","0.0-4.0-4.10","284","","","","","<div style=""font-size:60px;"">+</div>","","","rt_window","HIT",",539,539,539,539,539,539,539,539,539,539,539,539,539,539,539,539,539,539,539,539,539,539,539,539,539,539,539,539,539,539,539,539,539,539,539,539,539,539,539,539,539,539,539,539,539,539,539,539,539,539,539,539,539,539,539,539",",311,311,311,311,311,311,311,311,311,311,311,311,311,311,311,311,311,311,311,311,311,311,311,311,311,311,311,311,311,311,311,311,311,311,311,311,311,311,311,311,311,311,311,311,311,311,311,311,311,311,311,311,311,311,311,311","0,5,11,16,21,26,31,36,40,46,51,55,61,66,70,76,81,85,91,96,100,106,111,115,121,126,130,136,141,146,151,156,160,166,171,175,181,186,190,196,201,206,211,215,221,226,230,236,241,246,251,256,261,266,271,275,281","56","easy","","","","","",""
"","mousetracking","89","77611","0.0-4.0-5.10","74","","","","","<div style=""font-size:60px;"">+</div>","","","decision","ACQUIRE_TARG",",,,,578,578,578,578,578,578,578,578,578,657,657",",,,,255,255,255,255,255,255,255,255,255,168,168","0,6,10,15,21,26,30,35,41,46,51,55,61,67,70","14","easy","","","","","",""
"","mousetracking","90","77872","0.0-4.0-6.10","260","","","","","<div style=""font-size:60px;"">+</div>","","","targer_hold","SUCCESS",",,677,677,677,677,677,677,677,677,677,677,677,677,677,677,677,677,677,677,677,677,677,677,677,677,677,677,677,677,677,677,677,677,677,677,677,677,677,677,677,677,677,677,677,677,677,677,677,677,677,677",",,148,148,148,148,148,148,148,148,148,148,148,148,148,148,148,148,148,148,148,148,148,148,148,148,148,148,148,148,148,148,148,148,148,148,148,148,148,148,148,148,148,148,148,148,148,148,148,148,148,148","0,5,10,16,20,25,31,35,40,45,51,56,61,66,71,75,80,85,91,95,101,105,110,116,120,125,131,135,140,146,150,156,160,165,171,175,181,185,190,196,200,205,211,215,221,225,231,236,240,246,250,255","51","","50","","","","",""
"","html-keyboard-response","91","78873","0.0-4.0-7.10","null","","","","","<p style=color:green;>SUCCESS! + 50 points</p> SCORE: 290, Trial number: 11","null","","feedback","","","","","","easy","50","210","100","273.22330470336317,103.22330470336314","SUCCESS!",""
"","mousetracking","92","79179","0.0-4.0-0.11","304","","","","","<div style=""font-size:60px;"">+</div>","","","ITI","FIX",",539,539,539,539,539,539,539,539,539,539,539,539,539,539,539,539,539,539,539,539,539,539,539,539,539,539,539,539,539,539,539,539,539,539,539,539,539,539,539,539,539,539,539,539,539,539,539,539,539,539,539,539,539,539,539,539,539,539,539,539",",285,285,285,285,285,285,285,285,285,285,285,285,285,285,285,285,285,285,285,285,285,285,285,285,285,285,285,285,285,285,285,285,285,285,285,285,285,285,285,285,285,285,285,285,285,285,285,285,285,285,285,285,285,285,285,285,285,285,285,285","0,6,10,16,21,26,31,36,41,46,51,56,61,66,71,76,81,85,90,96,101,106,111,116,120,126,131,135,141,146,150,156,161,165,171,176,181,186,191,196,201,206,210,216,221,226,231,236,241,246,250,256,261,266,271,276,281,286,291,296,301","60","easy","","","","","",""
"","mousetracking","93","79683","0.0-4.0-1.11","504","","","","","<div style=""font-size:60px;"">+</div>","","","fixation","FIX",",522,522,522,522,522,522,522,522,522,522,522,522,522,522,522,522,522,522,522,522,522,522,522,522,522,522,522,522,522,522,522,522,522,522,522,522,522,522,522,522,522,522,522,522,522,522,522,522,522,522,522,522,522,522,522,522,522,522,522,522,522,522,522,522,522,522,522,522,522,522,522,522,522,522,522,522,522,522,522,522,522,522,522,522,522,522,522,522,522,522,522,522,522,522,522,522,522,522,522,522",",306,306,306,306,306,306,306,306,306,306,306,306,306,306,306,306,306,306,306,306,306,306,306,306,306,306,306,306,306,306,306,306,306,306,306,306,306,306,306,306,306,306,306,306,306,306,306,306,306,306,306,306,306,306,306,306,306,306,306,306,306,306,306,306,306,306,306,306,306,306,306,306,306,306,306,306,306,306,306,306,306,306,306,306,306,306,306,306,306,306,306,306,306,306,306,306,306,306,306,306","0,6,11,16,22,26,31,36,42,46,51,56,61,66,71,76,81,86,91,95,101,106,111,116,121,126,131,136,141,146,152,156,161,166,171,176,181,186,192,196,201,205,211,216,220,226,232,236,241,247,251,256,260,266,272,276,281,287,291,296,301,306,311,316,321,327,331,336,342,346,351,356,361,366,372,376,381,387,391,396,401,406,411,416,421,426,431,436,441,447,451,456,460,466,471,475,481,486,491,496,500","100","easy","","","","","",""
"","mousetracking","94","80932","0.0-4.0-2.11","1248","","","","","<div style=""font-size:60px;"">+</div>","","","delay","FIX",",522,522,522,522,522,522,522,522,522,522,522,522,522,522,522,522,522,522,522,522,522,522,522,522,522,522,522,522,522,522,522,522,522,522,522,522,522,522,522,522,522,522,522,522,522,522,522,522,522,522,522,522,522,522,522,522,522,522,522,522,522,522,522,522,522,522,522,522,522,522,522,522,522,522,522,522,522,522,522,522,522,522,522,522,522,522,522,522,522,522,522,522,522,522,522,522,522,522,522,522,522,522,522,522,522,522,522,522,522,522,522,522,522,522,522,522,522,522,522,522,522,522,522,522,522,522,522,522,522,522,522,522,522,522,522,522,522,522,522,522,522,522,522,522,522,522,522,522,522,522,522,522,522,522,522,522,522,522,522,522,522,522,522,522,522,522,522,522,522,522,522,522,522,522,522,522,522,522,522,522,522,522,522,522,522,522,522,522,522,522,522,522,522,522,522,522,522,522,522,522,522,522,522,522,522,522,522,522,522,522,522,522,522,522,522,522,522,522,522,522,522,522,522,522,522,522,522,522,522,522,522,522,522,522,522,522,522,522,522,522,522,522,522,522,522,522,522,522,522",",306,306,306,306,306,306,306,306,306,306,306,306,306,306,306,306,306,306,306,306,306,306,306,306,306,306,306,306,306,306,306,306,306,306,306,306,306,306,306,306,306,306,306,306,306,306,306,306,306,306,306,306,306,306,306,306,306,306,306,306,306,306,306,306,306,306,306,306,306,306,306,306,306,306,306,306,306,306,306,306,306,306,306,306,306,306,306,306,306,306,306,306,306,306,306,306,306,306,306,306,306,306,306,306,306,306,306,306,306,306,306,306,306,306,306,306,306,306,306,306,306,306,306,306,306,306,306,306,306,306,306,306,306,306,306,306,306,306,306,306,306,306,306,306,306,306,306,306,306,306,306,306,306,306,306,306,306,306,306,306,306,306,306,306,306,306,306,306,306,306,306,306,306,306,306,306,306,306,306,306,306,306,306,306,306,306,306,306,306,306,306,306,306,306,306,306,306,306,306,306,306,306,306,306,306,306,306,306,306,306,306,306,306,306,306,306,306,306,306,306,306,306,306,306,306,306,306,306,306,306,306,306,306,306,306,306,306,306,306,306,306,306,306,306,306,306,306,306,306","0,6,11,16,21,26,31,36,41,47,51,56,62,66,71,77,81,87,91,96,101,106,112,116,121,127,131,136,140,146,151,156,161,166,171,176,181,186,191,196,201,206,212,216,221,227,231,236,241,246,252,256,261,267,271,276,281,286,291,297,301,306,312,316,321,326,331,337,341,346,352,356,361,367,371,376,380,386,391,397,401,406,411,416,421,426,431,436,442,446,451,457,461,466,471,476,481,486,491,496,501,506,511,516,521,526,531,535,541,546,552,556,561,567,571,576,580,586,591,597,601,606,611,616,621,626,631,637,641,646,651,656,661,666,671,676,681,686,692,696,701,707,711,716,721,726,732,736,741,747,751,756,762,766,771,776,781,787,791,796,800,806,811,816,821,826,831,836,841,846,851,857,861,866,871,876,881,886,891,896,901,906,912,916,921,926,931,936,941,946,952,956,961,967,971,976,982,986,991,996,1001,1006,1011,1016,1020,1026,1031,1035,1041,1046,1051,1056,1061,1066,1071,1075,1081,1086,1092,1096,1101,1107,1111,1116,1121,1126,1131,1137,1141,1146,1151,1156,1160,1166,1171,1176,1181,1187,1191,1196,1201,1206,1212,1216,1221,1226,1231,1237,1241,1246","249","easy","","","","","",""
"","mousetracking","95","81016","0.0-4.0-3.11","83","","","","","<div style=""font-size:60px;"">+</div>","","","rt_catch","FIX",",522,522,522,522,522,522,522,522,522,522,522,522,522,522,522,522",",306,306,306,306,306,306,306,306,306,306,306,306,306,306,306,306","0,6,10,15,20,25,30,36,40,46,50,55,61,65,70,76,80","16","easy","","","","","",""
"","mousetracking","96","81302","0.0-4.0-4.11","284","","","","","<div style=""font-size:60px;"">+</div>","","","rt_window","HIT",",522,522,522,522,522,522,522,522,522,522,522,522,522,522,522,522,522,522,522,522,522,522,522,522,522,522,522,522,522,522,522,522,522,522,522,522,522,522,522,522,522,522,522,522,522,522,522,522,522,522,522,522,522,522,522,522",",306,306,306,306,306,306,306,306,306,306,306,306,306,306,306,306,306,306,306,306,306,306,306,306,306,306,306,306,306,306,306,306,306,306,306,306,306,306,306,306,306,306,306,306,306,306,306,306,306,306,306,306,306,306,306,306","0,5,11,15,21,26,30,36,41,45,51,56,60,66,71,75,81,86,90,96,100,106,111,115,121,126,131,135,141,145,151,156,160,166,171,175,181,186,190,196,201,205,211,216,220,226,231,235,241,246,250,256,260,265,270,275,281","56","easy","","","","","",""
