"success","trial_type","trial_index","time_elapsed","internal_node_id","rt","responses","partNum","view_history","time","stimulus","key_press","trial_status","epoch","choice","x-position","y-position","mice-times","nRecordings","block","reward","change_hue","target_size","location","outcome","response"
"true","fullscreen","0","2033","0.0-0.0","","","","","","","","","","","","","","","","","","","","",""
"","survey-text","1","9168","0.0-1.0","7133","{""Q0"":""adi_20241017_session1""}","""adi_20241017_session1""","","","","","","","","","","","","","","","","","",""
"","instructions","2","18589","0.0-2.0","9420","","","[{""page_index"":0,""viewing_time"":1338},{""page_index"":1,""viewing_time"":848},{""page_index"":2,""viewing_time"":1945},{""page_index"":3,""viewing_time"":2476},{""page_index"":4,""viewing_time"":2812}]","Thu Oct 17 2024 23:33:54 GMT-0400 (Eastern Daylight Time)","","","","","","","","","","","","","","","",""
"","html-keyboard-response","3","22099","0.0-3.0-0.0","3509","","","","","EASY BLOCK <br> To Start/Continue, press y <br> To end the session, press n","89","continue_flag","","","","","","","","","","","","",""
"","mousetracking","4","23436","0.0-4.0-0.0","1335","","","","","<div style=""font-size:60px;"">+</div>","","","ITI","FIX",",505,505,505,505,505,505,505,505,505,505,505,505,505,505,505,505,505,505,505,505,505,505,505,505,505,505,505,505,505,505,505,505,505,505,505,505,505,505,505,505,505,505,505,505,505,505,505,505,505,505,505,505,505,505,505,505,505,505,505,505,505,505,505,505,505,505,505,505,505,505,505,505,505,505,505,505,505,505,505,505,505,505,505,505,505,505,505,505,505,505,505,505,505,505,505,505,505,505,505,505,505,505,505,505,505,505,505,505,505,505,505,505,505,505,505,505,505,505,505,505,505,505,505,505,505,505,505,505,505,505,505,505,505,505,505,505,505,505,505,505,505,505,505,505,505,505,505,505,505,505,505,505,505,505,505,505,505,505,505,505,505,505,505,505,505,505,505,505,505,505,505,505,505,505,505,505,505,505,505,505,505,505,505,505,505,505,505,505,505,505,505,505,505,505,505,505,505,505,505,505,505,505,505,505,505,523,523,523,523,523,523,523,523,523,523,523,523,523,523,523,523,523,523,523,523,523,523,523,523,523,523,523,523,523,523,523,523,523,523,523,523,523,523,523,523,523,523,523,523,523,523,523,523,523,523,523,523,523,523,523,523,523,523,523,523,523",",351,351,351,351,351,351,351,351,351,351,351,351,351,351,351,351,351,351,351,351,351,351,351,351,351,351,351,351,351,351,351,351,351,351,351,351,351,351,351,351,351,351,351,351,351,351,351,351,351,351,351,351,351,351,351,351,351,351,351,351,351,351,351,351,351,351,351,351,351,351,351,351,351,351,351,351,351,351,351,351,351,351,351,351,351,351,351,351,351,351,351,351,351,351,351,351,351,351,351,351,351,351,351,351,351,351,351,351,351,351,351,351,351,351,351,351,351,351,351,351,351,351,351,351,351,351,351,351,351,351,351,351,351,351,351,351,351,351,351,351,351,351,351,351,351,351,351,351,351,351,351,351,351,351,351,351,351,351,351,351,351,351,351,351,351,351,351,351,351,351,351,351,351,351,351,351,351,351,351,351,351,351,351,351,351,351,351,351,351,351,351,351,351,351,351,351,351,351,351,351,351,351,351,351,351,323,323,323,323,323,323,323,323,323,323,323,323,323,323,323,323,323,323,323,323,323,323,323,323,323,323,323,323,323,323,323,323,323,323,323,323,323,323,323,323,323,323,323,323,323,323,323,323,323,323,323,323,323,323,323,323,323,323,323,323,323","0,6,11,16,21,26,32,36,41,47,51,56,61,67,71,77,81,86,91,97,101,106,112,116,122,126,131,137,141,147,151,157,161,166,172,176,182,186,191,196,201,207,211,217,221,226,231,236,242,246,252,256,261,266,271,277,281,287,291,296,301,306,312,316,322,326,331,337,341,347,351,357,361,367,371,376,382,386,392,396,402,406,411,417,421,427,431,436,442,446,452,456,461,466,471,476,481,487,491,497,501,506,511,516,521,526,531,536,542,546,552,556,561,566,571,577,581,587,592,596,602,606,611,616,622,627,632,636,641,646,651,656,660,666,672,676,681,687,691,696,701,706,712,716,721,727,731,736,742,746,752,756,761,766,772,776,781,787,791,797,801,807,811,816,822,826,831,837,841,847,851,856,862,866,871,877,881,887,891,896,902,906,911,916,921,927,931,937,941,946,951,957,961,967,971,976,981,987,991,995,1001,1007,1010,1017,1021,1026,1031,1036,1040,1046,1051,1056,1061,1067,1071,1076,1081,1086,1090,1096,1101,1107,1111,1117,1121,1126,1131,1136,1141,1145,1151,1156,1162,1166,1170,1176,1181,1186,1190,1196,1201,1206,1211,1216,1221,1226,1231,1236,1241,1246,1251,1255,1261,1266,1271,1276,1281,1286,1291,1296,1301,1306,1311,1316,1322,1326,1330","266","easy","","","","","",""
"","mousetracking","5","23942","0.0-4.0-1.0","504","","","","","<div style=""font-size:60px;"">+</div>","","","fixation","FIX",",532,532,532,532,532,532,532,532,532,532,532,532,532,532,532,532,532,532,532,532,532,532,532,532,532,532,532,532,532,532,532,532,532,532,532,532,532,532,532,532,532,532,532,532,532,532,532,532,532,532,532,532,532,532,532,532,532,532,532,532,532,532,532,532,532,532,532,532,532,532,532,532,532,532,532,532,532,532,532,532,532,532,532,532,532,532,532,532,532,532,532,532,532,532,532,532,532,532,532,532",",310,310,310,310,310,310,310,310,310,310,310,310,310,310,310,310,310,310,310,310,310,310,310,310,310,310,310,310,310,310,310,310,310,310,310,310,310,310,310,310,310,310,310,310,310,310,310,310,310,310,310,310,310,310,310,310,310,310,310,310,310,310,310,310,310,310,310,310,310,310,310,310,310,310,310,310,310,310,310,310,310,310,310,310,310,310,310,310,310,310,310,310,310,310,310,310,310,310,310,310","0,6,11,16,21,26,31,36,41,46,51,55,61,66,72,76,81,87,91,96,100,106,111,116,121,126,131,136,140,146,151,155,161,166,171,176,181,186,191,195,201,206,212,216,221,226,231,236,241,246,251,256,261,265,271,276,280,286,291,296,301,305,311,316,320,326,331,336,341,346,351,356,361,366,371,375,381,386,392,396,401,406,411,416,420,426,431,435,441,446,451,456,461,466,471,476,481,486,492,496,501","100","easy","","","","","",""
"","mousetracking","6","24579","0.0-4.0-2.0","636","","","","","<div style=""font-size:60px;"">+</div>","","","delay","FIX",",532,532,532,532,532,532,532,532,532,532,532,532,532,532,532,532,532,532,532,532,532,532,532,532,532,532,532,532,532,532,532,532,532,532,532,532,532,532,532,532,532,532,532,532,532,532,532,532,532,532,532,532,532,532,532,532,532,532,532,532,532,532,532,532,532,532,532,532,532,532,532,532,532,532,532,532,532,532,532,532,532,532,532,532,532,532,532,532,532,532,532,532,532,532,532,532,532,532,532,532,532,532,532,532,532,532,532,532,532,532,532,532,532,532,532,532,532,532,532,532,532,532,532,532,532,532",",310,310,310,310,310,310,310,310,310,310,310,310,310,310,310,310,310,310,310,310,310,310,310,310,310,310,310,310,310,310,310,310,310,310,310,310,310,310,310,310,310,310,310,310,310,310,310,310,310,310,310,310,310,310,310,310,310,310,310,310,310,310,310,310,310,310,310,310,310,310,310,310,310,310,310,310,310,310,310,310,310,310,310,310,310,310,310,310,310,310,310,310,310,310,310,310,310,310,310,310,310,310,310,310,310,310,310,310,310,310,310,310,310,310,310,310,310,310,310,310,310,310,310,310,310,310","1,6,12,16,22,26,31,36,41,46,51,56,61,66,72,76,81,87,91,96,101,106,112,116,121,127,131,136,142,146,151,156,161,166,171,176,181,186,192,196,201,207,211,216,221,226,232,236,241,246,251,256,261,266,272,276,281,287,291,296,301,306,312,316,321,327,331,336,342,346,351,356,361,367,371,376,382,386,391,396,401,407,411,416,421,426,432,436,442,446,451,456,461,467,471,476,481,486,492,496,502,506,511,516,521,527,531,536,541,546,551,556,562,566,571,576,581,587,591,596,601,606,612,616,621,626,631","126","easy","","","","","",""
"","mousetracking","7","24667","0.0-4.0-3.0","86","","","","","<div style=""font-size:60px;"">+</div>","","","rt_catch","FIX",",532,532,532,532,532,532,532,532,532,532,532,532,532,532,532,532,532",",310,310,310,310,310,310,310,310,310,310,310,310,310,310,310,310,310","0,5,11,16,21,26,31,36,41,45,51,56,60,66,70,75,81,85","17","easy","","","","","",""
"","mousetracking","8","24945","0.0-4.0-4.0","276","","","","","<div style=""font-size:60px;"">+</div>","","","rt_window","HIT",",532,532,532,532,532,532,532,532,532,532,532,532,532,532,532,532,532,532,532,532,532,532,532,532,532,532,532,532,532,532,532,532,532,532,532,532,532,532,532,532,532,532,532,532,532,532,532,532,532,532,532,532,532,532",",310,310,310,310,310,310,310,310,310,310,310,310,310,310,310,310,310,310,310,310,310,310,310,310,310,310,310,310,310,310,310,310,310,310,310,310,310,310,310,310,310,310,310,310,310,310,310,310,310,310,310,310,310,310","0,5,11,16,21,26,31,36,41,47,51,56,61,66,71,75,81,86,91,96,101,106,111,115,121,126,131,136,141,146,151,155,161,166,170,176,181,187,191,196,201,206,211,216,221,225,231,236,241,246,251,255,261,266,271","54","easy","","","","","",""
"","mousetracking","9","25153","0.0-4.0-5.0","206","","","","","<div style=""font-size:60px;"">+</div>","","","decision","ACQUIRE_TARG",",,,481,481,481,481,481,481,481,481,481,481,481,481,481,481,481,481,481,481,481,481,481,481,481,481,481,481,481,481,481,481,481,481,481,481,481,481,481,356,356",",,,283,283,283,283,283,283,283,283,283,283,283,283,283,283,283,283,283,283,283,283,283,283,283,283,283,283,283,283,283,283,283,283,283,283,283,283,283,192,192","0,5,11,16,20,25,30,35,40,45,50,55,61,65,70,76,80,86,90,96,100,105,111,116,120,125,131,136,141,146,150,155,160,165,170,175,181,186,190,196,200,205","41","easy","","","","","",""
"","mousetracking","10","25415","0.0-4.0-6.0","260","","","","","<div style=""font-size:60px;"">+</div>","","","targer_hold","SUCCESS",",,354,354,354,354,354,354,354,354,354,354,354,354,354,354,354,354,354,354,354,354,354,354,354,354,354,354,354,354,354,354,354,354,354,354,354,354,354,354,354,354,354,354,354,354,354,354,354,354,354,354",",,190,190,190,190,190,190,190,190,190,190,190,190,190,190,190,190,190,190,190,190,190,190,190,190,190,190,190,190,190,190,190,190,190,190,190,190,190,190,190,190,190,190,190,190,190,190,190,190,190,190","0,6,10,16,21,26,31,35,41,46,51,55,61,66,72,76,81,85,91,96,101,106,111,116,121,126,131,136,141,146,151,156,161,166,171,175,181,186,191,196,201,206,211,216,221,226,232,236,241,246,251,256","51","","10","","","","",""
"","html-keyboard-response","11","26420","0.0-4.0-7.0","null","","","","","<p style=color:green;>SUCCESS! + 10 points</p> SCORE: 10, Trial number: 1","null","","feedback","","","","","","easy","10","200","100","626.7766952966368,103.22330470336314","SUCCESS!",""
"","mousetracking","12","26730","0.0-4.0-0.1","308","","","","","<div style=""font-size:60px;"">+</div>","","","ITI","FIX",",530,530,530,530,530,530,530,530,530,530,530,530,530,530,530,530,530,530,530,530,530,530,530,530,530,530,530,530,530,530,530,530,530,530,530,530,530,530,530,530,530,530,530,530,530,530,530,530,530,530,530,530,530,530,530,530,530,530,530,530,530",",314,314,314,314,314,314,314,314,314,314,314,314,314,314,314,314,314,314,314,314,314,314,314,314,314,314,314,314,314,314,314,314,314,314,314,314,314,314,314,314,314,314,314,314,314,314,314,314,314,314,314,314,314,314,314,314,314,314,314,314,314","0,5,10,16,20,25,31,36,40,46,50,55,61,65,70,76,81,85,91,96,100,105,111,115,120,126,131,135,141,145,151,155,160,166,171,175,181,185,190,196,200,205,211,215,220,226,231,235,241,246,250,256,261,265,271,276,280,286,290,295,301,305","61","easy","","","","","",""
"","mousetracking","13","27235","0.0-4.0-1.1","504","","","","","<div style=""font-size:60px;"">+</div>","","","fixation","FIX",",530,530,530,530,530,530,530,530,530,530,530,530,530,530,530,530,530,530,530,530,530,530,530,530,530,530,530,530,530,530,530,530,530,530,530,530,530,530,530,530,530,530,530,530,530,530,530,530,530,530,530,530,530,530,530,530,530,530,530,530,530,530,530,530,530,530,530,530,530,530,530,530,530,530,530,530,530,530,530,530,530,530,530,530,530,530,530,530,530,530,530,530,530,530,530,530,530,530,530,530",",314,314,314,314,314,314,314,314,314,314,314,314,314,314,314,314,314,314,314,314,314,314,314,314,314,314,314,314,314,314,314,314,314,314,314,314,314,314,314,314,314,314,314,314,314,314,314,314,314,314,314,314,314,314,314,314,314,314,314,314,314,314,314,314,314,314,314,314,314,314,314,314,314,314,314,314,314,314,314,314,314,314,314,314,314,314,314,314,314,314,314,314,314,314,314,314,314,314,314,314","0,6,11,15,21,26,31,36,40,46,51,55,61,66,71,76,80,86,91,95,101,105,111,116,121,126,131,135,141,146,151,156,161,166,171,175,180,186,192,196,201,206,211,216,221,226,231,236,241,246,251,255,261,266,271,276,281,286,292,296,301,306,311,316,320,326,332,336,341,346,351,356,361,366,372,376,381,385,391,396,401,406,411,415,421,425,431,436,440,446,451,455,461,466,471,476,480,486,490,496,501","100","easy","","","","","",""
"","mousetracking","14","28831","0.0-4.0-2.1","1594","","","","","<div style=""font-size:60px;"">+</div>","","","delay","FIX",",530,530,530,530,530,530,530,530,530,530,530,530,530,530,530,530,530,530,530,530,530,530,530,530,530,530,530,530,530,530,530,530,530,530,530,530,530,530,530,530,530,530,530,530,530,530,530,530,530,530,530,530,530,530,530,530,530,530,530,530,530,530,530,530,530,530,530,530,530,530,530,530,530,530,530,530,530,530,530,530,530,530,530,530,530,530,530,530,530,530,530,530,530,530,530,530,530,530,530,530,530,530,530,530,530,530,530,530,530,530,530,530,530,530,530,530,530,530,530,530,530,530,530,530,530,530,530,530,530,530,530,530,530,530,530,530,530,530,530,530,530,530,530,530,530,530,530,530,530,530,530,530,530,530,530,530,530,530,530,530,530,530,530,530,530,530,530,530,530,530,530,530,530,530,530,530,530,530,530,530,530,530,530,530,530,530,530,530,530,530,530,530,530,530,530,530,530,530,530,530,530,530,530,530,530,530,530,530,530,530,530,530,530,530,530,530,530,530,530,530,530,530,530,530,530,530,530,530,530,530,530,530,530,530,530,530,530,530,530,530,530,530,530,530,530,530,530,530,530,530,530,530,530,530,530,530,530,530,530,530,530,530,530,530,530,530,530,530,530,530,530,530,530,530,530,530,530,530,530,530,530,530,530,530,530,530,530,530,530,530,530,530,530,530,530,530,530,530,530,530,530,530,530,530,530,530,530,530,530,530,530,530,530,530,530,530,530,530",",314,314,314,314,314,314,314,314,314,314,314,314,314,314,314,314,314,314,314,314,314,314,314,314,314,314,314,314,314,314,314,314,314,314,314,314,314,314,314,314,314,314,314,314,314,314,314,314,314,314,314,314,314,314,314,314,314,314,314,314,314,314,314,314,314,314,314,314,314,314,314,314,314,314,314,314,314,314,314,314,314,314,314,314,314,314,314,314,314,314,314,314,314,314,314,314,314,314,314,314,314,314,314,314,314,314,314,314,314,314,314,314,314,314,314,314,314,314,314,314,314,314,314,314,314,314,314,314,314,314,314,314,314,314,314,314,314,314,314,314,314,314,314,314,314,314,314,314,314,314,314,314,314,314,314,314,314,314,314,314,314,314,314,314,314,314,314,314,314,314,314,314,314,314,314,314,314,314,314,314,314,314,314,314,314,314,314,314,314,314,314,314,314,314,314,314,314,314,314,314,314,314,314,314,314,314,314,314,314,314,314,314,314,314,314,314,314,314,314,314,314,314,314,314,314,314,314,314,314,314,314,314,314,314,314,314,314,314,314,314,314,314,314,314,314,314,314,314,314,314,314,314,314,314,314,314,314,314,314,314,314,314,314,314,314,314,314,314,314,314,314,314,314,314,314,314,314,314,314,314,314,314,314,314,314,314,314,314,314,314,314,314,314,314,314,314,314,314,314,314,314,314,314,314,314,314,314,314,314,314,314,314,314,314,314,314,314,314","0,5,11,15,20,26,30,35,40,46,50,55,61,65,70,76,80,85,91,95,100,106,110,116,120,126,131,135,141,145,150,156,160,165,171,175,180,186,190,196,200,206,211,215,221,226,230,235,241,245,250,256,260,265,271,275,280,286,290,295,301,305,310,315,320,325,331,335,340,346,350,355,360,365,371,375,380,386,391,395,401,406,410,415,421,425,430,436,440,446,451,455,460,466,470,475,481,485,490,496,500,506,510,515,521,525,530,536,540,545,551,555,560,566,570,575,580,585,591,595,601,606,610,615,620,625,630,636,640,646,651,655,661,666,670,675,680,685,691,695,700,706,710,715,721,725,730,736,740,745,751,755,760,766,770,775,781,785,790,796,800,806,811,815,820,826,830,835,840,845,851,855,860,866,870,875,881,885,890,895,901,905,910,916,920,926,930,935,941,945,950,956,960,966,970,975,981,985,990,995,1000,1005,1010,1015,1020,1026,1030,1035,1041,1045,1050,1056,1060,1066,1070,1075,1081,1085,1090,1096,1100,1106,1110,1115,1121,1125,1131,1135,1140,1146,1150,1155,1161,1165,1170,1176,1180,1186,1190,1195,1201,1205,1210,1216,1220,1226,1231,1235,1241,1245,1250,1255,1260,1265,1270,1275,1280,1286,1290,1295,1301,1305,1311,1315,1320,1326,1330,1335,1340,1345,1350,1355,1360,1366,1370,1375,1381,1385,1390,1396,1400,1406,1411,1415,1421,1426,1430,1435,1440,1445,1450,1455,1460,1466,1470,1475,1481,1485,1490,1496,1500,1505,1511,1515,1520,1525,1530,1535,1540,1545,1550,1555,1560,1565,1570,1575,1580,1586,1590","318","easy","","","","","",""
"","mousetracking","15","28921","0.0-4.0-3.1","88","","","","","<div style=""font-size:60px;"">+</div>","","","rt_catch","FIX",",530,530,530,530,530,530,530,530,530,530,530,530,530,530,530,530,530",",314,314,314,314,314,314,314,314,314,314,314,314,314,314,314,314,314","1,6,12,16,22,26,31,36,41,47,52,56,61,66,71,76,81,86","17","easy","","","","","",""
"","mousetracking","16","29245","0.0-4.0-4.1","323","","","","","<div style=""font-size:60px;"">+</div>","","","rt_window","HIT",",530,530,530,530,530,530,530,530,530,530,530,530,530,530,530,530,530,530,530,530,530,530,530,530,530,530,530,530,530,530,530,530,530,530,530,530,530,530,530,530,530,530,530,530,530,530,530,530,530,530,530,530,530,530,530,530,530,530,530,530,530,530,530,530",",314,314,314,314,314,314,314,314,314,314,314,314,314,314,314,314,314,314,314,314,314,314,314,314,314,314,314,314,314,314,314,314,314,314,314,314,314,314,314,314,314,314,314,314,314,314,314,314,314,314,314,314,314,314,314,314,314,314,314,314,314,314,314,314","0,5,11,16,20,26,31,35,40,46,51,56,61,66,71,75,80,86,91,95,100,106,111,115,121,125,131,136,140,146,150,156,161,166,171,175,181,185,191,196,200,206,211,215,221,225,231,236,240,246,250,255,261,265,271,276,281,286,291,296,300,305,311,315,321","64","easy","","","","","",""
"","mousetracking","17","29303","0.0-4.0-5.1","56","","","","","<div style=""font-size:60px;"">+</div>","","","decision","ACQUIRE_TARG",",,,589,589,589,589,589,589,589,636,636",",,,237,237,237,237,237,237,237,189,189","0,5,11,16,20,26,30,36,41,45,50,55","11","easy","","","","","",""
"","mousetracking","18","29565","0.0-4.0-6.1","261","","","","","<div style=""font-size:60px;"">+</div>","","","targer_hold","SUCCESS",",,657,657,657,657,657,657,657,657,657,657,657,657,657,657,657,657,657,657,657,657,657,657,657,657,657,657,657,657,657,657,657,657,657,657,657,657,657,657,657,657,657,657,657,657,657,657,657,657,657,657,657",",,165,165,165,165,165,165,165,165,165,165,165,165,165,165,165,165,165,165,165,165,165,165,165,165,165,165,165,165,165,165,165,165,165,165,165,165,165,165,165,165,165,165,165,165,165,165,165,165,165,165,165","0,6,10,16,21,26,30,36,41,46,50,56,61,66,70,76,81,85,91,96,100,106,111,116,120,126,130,136,140,145,151,155,161,166,170,176,181,185,191,196,200,206,211,216,221,226,231,236,240,246,251,255,261","52","","10","","","","",""
"","html-keyboard-response","19","30566","0.0-4.0-7.1","null","","","","","<p style=color:green;>SUCCESS! + 10 points</p> SCORE: 20, Trial number: 2","null","","feedback","","","","","","easy","10","210","100","273.22330470336317,103.22330470336314","SUCCESS!",""
"","mousetracking","20","30874","0.0-4.0-0.2","307","","","","","<div style=""font-size:60px;"">+</div>","","","ITI","FIX",",519,519,519,519,519,519,519,519,519,519,519,519,519,519,519,519,519,519,519,519,519,519,519,519,519,519,519,519,519,519,519,519,519,519,519,519,519,519,519,519,519,519,519,519,519,519,519,519,519,519,519,519,519,519,519,519,519,519,519,519,519",",311,311,311,311,311,311,311,311,311,311,311,311,311,311,311,311,311,311,311,311,311,311,311,311,311,311,311,311,311,311,311,311,311,311,311,311,311,311,311,311,311,311,311,311,311,311,311,311,311,311,311,311,311,311,311,311,311,311,311,311,311","0,6,10,16,21,26,31,36,40,46,51,56,60,66,71,76,81,86,91,96,101,106,111,116,121,126,131,136,141,147,151,156,160,166,171,176,181,186,191,195,201,206,211,216,221,226,231,236,241,246,251,255,261,266,271,276,281,286,291,296,301,307","61","easy","","","","","",""
"","mousetracking","21","31382","0.0-4.0-1.2","507","","","","","<div style=""font-size:60px;"">+</div>","","","fixation","FIX",",524,524,524,524,524,524,524,524,524,524,524,524,524,524,524,524,524,524,524,524,524,524,524,524,524,524,524,524,524,524,524,524,524,524,524,524,524,524,524,524,524,524,524,524,524,524,524,524,524,524,524,524,524,524,524,524,524,524,524,524,524,524,524,524,524,524,524,524,524,524,524,524,524,524,524,524,524,524,524,524,524,524,524,524,524,524,524,524,524,524,524,524,524,524,524,524,524,524,524,524,524",",301,301,301,301,301,301,301,301,301,301,301,301,301,301,301,301,301,301,301,301,301,301,301,301,301,301,301,301,301,301,301,301,301,301,301,301,301,301,301,301,301,301,301,301,301,301,301,301,301,301,301,301,301,301,301,301,301,301,301,301,301,301,301,301,301,301,301,301,301,301,301,301,301,301,301,301,301,301,301,301,301,301,301,301,301,301,301,301,301,301,301,301,301,301,301,301,301,301,301,301,301","0,5,11,16,21,25,31,36,40,46,51,55,61,66,71,76,80,86,91,95,101,106,111,116,121,126,131,135,141,146,151,156,161,166,171,175,181,186,191,196,200,206,212,216,221,226,231,235,241,246,251,256,261,265,271,276,280,286,291,295,301,305,311,316,320,326,331,335,341,346,351,356,361,366,371,375,381,385,391,396,400,406,411,415,421,426,431,436,440,446,451,455,461,466,471,476,481,486,491,495,501,506","101","easy","","","","","",""
"","mousetracking","22","32021","0.0-4.0-2.2","638","","","","","<div style=""font-size:60px;"">+</div>","","","delay","FIX",",524,524,524,524,524,524,524,524,524,524,524,524,524,524,524,524,524,524,524,524,524,524,524,524,524,524,524,524,524,524,524,524,524,524,524,524,524,524,524,524,524,524,524,524,524,524,524,524,524,524,524,524,524,524,524,524,524,524,524,524,524,524,524,524,524,524,524,524,524,524,524,524,524,524,524,524,524,524,524,524,524,524,524,524,524,524,524,524,524,524,524,524,524,524,524,524,524,524,524,524,524,524,524,524,524,524,524,524,524,524,524,524,524,524,524,524,524,524,524,524,524,524,524,524,524,524,524",",301,301,301,301,301,301,301,301,301,301,301,301,301,301,301,301,301,301,301,301,301,301,301,301,301,301,301,301,301,301,301,301,301,301,301,301,301,301,301,301,301,301,301,301,301,301,301,301,301,301,301,301,301,301,301,301,301,301,301,301,301,301,301,301,301,301,301,301,301,301,301,301,301,301,301,301,301,301,301,301,301,301,301,301,301,301,301,301,301,301,301,301,301,301,301,301,301,301,301,301,301,301,301,301,301,301,301,301,301,301,301,301,301,301,301,301,301,301,301,301,301,301,301,301,301,301,301","0,6,11,15,21,26,30,36,40,46,51,55,61,66,70,76,81,86,91,96,100,106,111,115,121,126,130,136,141,145,151,156,160,166,171,175,181,186,190,196,201,205,211,216,220,226,231,235,241,246,250,256,261,265,271,276,280,286,291,296,301,305,311,316,320,326,331,335,341,346,350,356,361,366,371,376,380,386,390,396,401,405,411,416,420,426,431,436,441,446,450,456,461,465,471,476,480,486,491,495,501,506,510,516,521,526,531,536,540,546,550,556,561,566,571,576,580,586,591,595,601,606,610,616,621,625,631,636","127","easy","","","","","",""
"","mousetracking","23","32109","0.0-4.0-3.2","87","","","","","<div style=""font-size:60px;"">+</div>","","","rt_catch","FIX",",524,524,524,524,524,524,524,524,524,524,524,524,524,524,524,524,524",",301,301,301,301,301,301,301,301,301,301,301,301,301,301,301,301,301","0,5,11,16,20,26,31,35,41,46,51,56,60,66,71,75,81,86","17","easy","","","","","",""
"","mousetracking","24","32410","0.0-4.0-4.2","300","","","","","<div style=""font-size:60px;"">+</div>","","","rt_window","HIT",",524,524,524,524,524,524,524,524,524,524,524,524,524,524,524,524,524,524,524,524,524,524,524,524,524,524,524,524,524,524,524,524,524,524,524,524,524,524,524,524,524,524,524,524,524,524,524,524,524,524,524,524,524,524,524,524,524,524,524",",301,301,301,301,301,301,301,301,301,301,301,301,301,301,301,301,301,301,301,301,301,301,301,301,301,301,301,301,301,301,301,301,301,301,301,301,301,301,301,301,301,301,301,301,301,301,301,301,301,301,301,301,301,301,301,301,301,301,301","0,6,12,16,22,26,32,36,41,47,51,56,61,66,71,76,82,86,92,96,101,107,111,116,120,126,132,136,141,147,151,156,162,166,172,176,181,186,191,197,201,207,211,216,221,226,232,236,241,246,251,256,261,266,271,276,281,286,291,297","59","easy","","","","","",""
"","mousetracking","25","32813","0.0-4.0-5.2","null","","","","","<div style=""font-size:60px;"">+</div>","","","decision","WRONG_TARG",",,,,475,475,475,475,475,475,475,475,475,475,475,475,475,475,475,475,475,475,475,475,475,475,475,475,475,475,475,475,475,475,475,475,475,475,475,475,475,475,475,475,475,475,475,475,475,475,475,475,475,475,475,475,475,475,475,475,475,475,475,475,475,475,475,475,475,475,475,475,475,475,475,475,475,475,475,475,475",",,,,259,259,259,259,259,259,259,259,259,259,259,259,259,259,259,259,259,259,259,259,259,259,259,259,259,259,259,259,259,259,259,259,259,259,259,259,259,259,259,259,259,259,259,259,259,259,259,259,259,259,259,259,259,259,259,259,259,259,259,259,259,259,259,259,259,259,259,259,259,259,259,259,259,259,259,259,259","0,6,10,16,21,26,30,36,41,45,50,55,61,66,71,76,81,86,90,96,101,106,111,116,121,126,131,136,141,146,151,156,161,166,171,176,181,185,190,196,201,205,211,216,221,225,231,235,241,246,250,256,261,266,271,275,281,286,291,296,301,306,311,316,321,325,331,336,341,345,351,355,361,365,371,376,381,386,391,396,401","80","easy","","","","","",""
"","mousetracking","26","33114","0.0-4.0-6.2","300","","","","","<div style=""font-size:60px;"">+</div>","","","targer_hold","SUCCESS",",,,372,372,372,372,372,372,372,367,367,367,367,367,367,367,367,367,367,367,367,367,367,367,367,367,367,367,367,367,367,367,367,367,367,367,367,367,367,367,367,367,367,367,367,367,367,367,367,367,367,367,367,367,367,367,367,367,367",",,,152,152,152,152,152,152,152,148,148,148,148,148,148,148,148,148,148,148,148,148,148,148,148,148,148,148,148,148,148,148,148,148,148,148,148,148,148,148,148,148,148,148,148,148,148,148,148,148,148,148,148,148,148,148,148,148,148","0,5,11,15,21,25,30,35,41,45,50,56,60,65,71,75,80,85,91,95,100,105,110,115,120,125,130,135,141,145,151,155,160,166,170,175,180,185,190,196,200,205,211,215,220,225,230,236,240,245,251,255,260,266,270,275,281,285,291,295","59","","10","","","","",""
"","html-keyboard-response","27","34120","0.0-4.0-7.2","null","","","","","<p style=color:red;>REACH ERROR - 20 points</p> SCORE: 20, Trial number: 2","null","","feedback","","","","","","easy","10","200","50","626.7766952966368,103.22330470336314","REACH ERROR",""
"","mousetracking","28","34427","0.0-4.0-0.3","306","","","","","<div style=""font-size:60px;"">+</div>","","","ITI","FIX",",536,536,536,536,536,536,536,536,536,536,536,536,536,536,536,536,536,536,536,536,536,536,536,536,536,536,536,536,536,536,536,536,536,536,536,536,536,536,536,536,536,536,536,536,536,536,536,536,536,536,536,536,536,536,536,536,536,536,536,536,536",",320,320,320,320,320,320,320,320,320,320,320,320,320,320,320,320,320,320,320,320,320,320,320,320,320,320,320,320,320,320,320,320,320,320,320,320,320,320,320,320,320,320,320,320,320,320,320,320,320,320,320,320,320,320,320,320,320,320,320,320,320","0,5,11,15,21,25,30,36,40,46,50,55,61,65,71,76,80,85,90,96,101,105,110,116,120,125,130,135,140,146,150,155,160,165,170,176,180,186,190,196,200,205,210,216,220,226,231,235,241,245,250,256,261,266,270,276,280,286,291,295,300,306","61","easy","","","","","",""
"","mousetracking","29","34933","0.0-4.0-1.3","504","","","","","<div style=""font-size:60px;"">+</div>","","","fixation","FIX",",526,526,526,526,526,526,526,526,526,526,526,526,526,526,526,526,526,526,526,526,526,526,526,526,526,526,526,526,526,526,526,526,526,526,526,526,526,526,526,526,526,526,526,526,526,526,526,526,526,526,526,526,526,526,526,526,526,526,526,526,526,526,526,526,526,526,526,526,526,526,526,526,526,526,526,526,526,526,526,526,526,526,526,526,526,526,526,526,526,526,526,526,526,526,526,526,526,526,526,526",",308,308,308,308,308,308,308,308,308,308,308,308,308,308,308,308,308,308,308,308,308,308,308,308,308,308,308,308,308,308,308,308,308,308,308,308,308,308,308,308,308,308,308,308,308,308,308,308,308,308,308,308,308,308,308,308,308,308,308,308,308,308,308,308,308,308,308,308,308,308,308,308,308,308,308,308,308,308,308,308,308,308,308,308,308,308,308,308,308,308,308,308,308,308,308,308,308,308,308,308","0,5,11,16,20,26,32,35,41,45,51,56,61,66,71,75,81,85,91,96,100,106,111,115,121,126,131,136,141,146,151,156,161,166,172,176,181,186,191,196,200,206,212,216,221,226,231,236,241,246,252,256,261,266,271,276,281,286,292,295,301,305,311,316,320,326,331,335,341,346,351,356,361,366,372,376,381,386,391,396,400,406,411,415,421,426,431,436,440,446,451,455,461,466,471,475,481,486,491,496,501","100","easy","","","","","",""
"","mousetracking","30","35818","0.0-4.0-2.3","883","","","","","<div style=""font-size:60px;"">+</div>","","","delay","FIX",",526,526,526,526,526,526,526,526,526,526,526,526,526,526,526,526,526,526,526,526,526,526,526,526,526,526,526,526,526,526,526,526,526,526,526,526,526,526,526,526,526,526,526,526,526,526,526,526,526,526,526,526,526,526,526,526,526,526,526,526,526,526,526,526,526,526,526,526,526,526,526,526,526,526,526,526,526,526,526,526,526,526,526,526,526,526,526,526,526,526,526,526,526,526,526,526,526,526,526,526,526,526,526,526,526,526,526,526,526,526,526,526,526,526,526,526,526,526,526,526,526,526,526,526,526,526,526,526,526,526,526,526,526,526,526,526,526,526,526,526,526,526,526,526,526,526,526,526,526,526,526,526,526,526,526,526,526,526,526,526,526,526,526,526,526,526,526,526,526,526,526,526,526,526,526,526",",308,308,308,308,308,308,308,308,308,308,308,308,308,308,308,308,308,308,308,308,308,308,308,308,308,308,308,308,308,308,308,308,308,308,308,308,308,308,308,308,308,308,308,308,308,308,308,308,308,308,308,308,308,308,308,308,308,308,308,308,308,308,308,308,308,308,308,308,308,308,308,308,308,308,308,308,308,308,308,308,308,308,308,308,308,308,308,308,308,308,308,308,308,308,308,308,308,308,308,308,308,308,308,308,308,308,308,308,308,308,308,308,308,308,308,308,308,308,308,308,308,308,308,308,308,308,308,308,308,308,308,308,308,308,308,308,308,308,308,308,308,308,308,308,308,308,308,308,308,308,308,308,308,308,308,308,308,308,308,308,308,308,308,308,308,308,308,308,308,308,308,308,308,308,308,308","0,5,10,15,21,25,31,36,40,46,51,55,60,65,71,75,80,85,91,95,100,106,110,115,121,125,131,135,140,146,150,155,161,165,171,175,180,186,190,195,201,205,211,216,220,226,230,235,240,245,251,256,260,266,271,275,280,285,291,296,300,305,311,315,321,325,330,335,340,345,351,355,360,365,370,375,380,385,391,395,400,406,410,415,421,425,431,435,440,446,450,455,460,465,471,475,480,486,490,495,500,506,511,515,520,525,530,536,540,545,550,556,560,565,571,575,580,585,590,595,600,605,611,615,620,625,631,635,640,646,650,655,661,665,671,676,680,686,690,695,701,705,711,716,720,726,731,735,741,745,750,755,760,765,771,775,780,785,791,795,800,806,810,815,821,825,831,835,841,845,850,855,860,865,871,875,880","176","easy","","","","","",""
"","mousetracking","31","35905","0.0-4.0-3.3","86","","","","","<div style=""font-size:60px;"">+</div>","","","rt_catch","FIX",",526,526,526,526,526,526,526,526,526,526,526,526,526,526,526,526,526",",308,308,308,308,308,308,308,308,308,308,308,308,308,308,308,308,308","0,5,11,16,20,26,31,35,41,46,50,56,60,66,71,75,81,86","17","easy","","","","","",""
"","mousetracking","32","36229","0.0-4.0-4.3","322","","","","","<div style=""font-size:60px;"">+</div>","","","rt_window","HIT",",526,526,526,526,526,526,526,526,526,526,526,526,526,526,526,526,526,526,526,526,526,526,526,526,526,526,526,526,526,526,526,526,526,526,526,526,526,526,526,526,526,526,526,526,526,526,526,526,526,526,526,526,526,526,526,526,526,526,526,526,526,526,526,526",",308,308,308,308,308,308,308,308,308,308,308,308,308,308,308,308,308,308,308,308,308,308,308,308,308,308,308,308,308,308,308,308,308,308,308,308,308,308,308,308,308,308,308,308,308,308,308,308,308,308,308,308,308,308,308,308,308,308,308,308,308,308,308,308","0,6,12,16,21,26,31,36,40,46,52,56,61,67,71,76,81,86,92,96,101,107,111,116,120,126,132,136,141,147,151,156,160,166,172,176,181,187,191,196,201,206,211,216,221,226,231,236,240,246,251,256,260,266,271,275,281,287,291,296,301,306,311,316,321","64","easy","","","","","",""
"","mousetracking","33","36321","0.0-4.0-5.3","92","","","","","<div style=""font-size:60px;"">+</div>","","","decision","ACQUIRE_TARG",",,,576,576,576,576,576,576,576,576,576,576,576,576,576,576,644,644",",,,371,371,371,371,371,371,371,371,371,371,371,371,371,371,477,477","0,6,11,16,21,26,32,36,41,46,51,56,61,66,72,76,81,86,92","18","easy","","","","","",""
"","mousetracking","34","36582","0.0-4.0-6.3","259","","","","","<div style=""font-size:60px;"">+</div>","","","targer_hold","SUCCESS",",,655,655,655,655,655,655,655,655,655,655,655,655,655,655,655,655,655,655,655,655,655,655,655,655,655,655,655,655,655,655,655,655,655,655,655,655,655,655,655,655,655,655,655,655,655,655,655,655,655,655",",,498,498,498,498,498,498,498,498,498,498,498,498,498,498,498,498,498,498,498,498,498,498,498,498,498,498,498,498,498,498,498,498,498,498,498,498,498,498,498,498,498,498,498,498,498,498,498,498,498,498","0,5,11,15,21,25,30,35,40,45,50,55,60,65,70,76,80,85,90,95,101,106,110,116,120,125,130,135,140,146,150,155,160,166,170,175,180,185,190,196,200,205,211,215,220,226,230,235,240,245,250,256","51","","50","","","","",""
"","html-keyboard-response","35","37587","0.0-4.0-7.3","null","","","","","<p style=color:green;>SUCCESS! + 50 points</p> SCORE: 70, Trial number: 3","null","","feedback","","","","","","easy","50","230","100","273.22330470336317,456.77669529663683","SUCCESS!",""
"","mousetracking","36","37896","0.0-4.0-0.4","307","","","","","<div style=""font-size:60px;"">+</div>","","","ITI","FIX",",529,529,529,529,529,529,529,529,529,529,529,529,529,529,529,529,529,529,529,529,529,529,529,529,529,529,529,529,529,529,529,529,529,529,529,529,529,529,529,529,529,529,529,529,529,529,529,529,529,529,529,529,529,529,529,529,529,529,529,529,529",",296,296,296,296,296,296,296,296,296,296,296,296,296,296,296,296,296,296,296,296,296,296,296,296,296,296,296,296,296,296,296,296,296,296,296,296,296,296,296,296,296,296,296,296,296,296,296,296,296,296,296,296,296,296,296,296,296,296,296,296,296","0,6,10,16,21,26,30,35,41,45,50,56,61,66,71,75,80,86,90,95,101,106,110,116,121,125,131,136,140,146,151,155,161,165,170,176,180,186,191,195,200,206,211,215,221,226,230,236,241,246,251,256,260,266,271,275,281,286,290,296,300,306","61","easy","","","","","",""
"","mousetracking","37","38400","0.0-4.0-1.4","503","","","","","<div style=""font-size:60px;"">+</div>","","","fixation","FIX",",529,529,529,529,529,529,529,529,529,529,529,529,529,529,529,529,529,529,529,529,529,529,529,529,529,529,529,529,529,529,529,529,529,529,529,529,529,529,529,529,529,529,529,529,529,529,529,529,529,529,529,529,529,529,529,529,529,529,529,529,529,529,529,529,529,529,529,529,529,529,529,529,529,529,529,529,529,529,529,529,529,529,529,529,529,529,529,529,529,529,529,529,529,529,529,529,529,529,529,529",",296,296,296,296,296,296,296,296,296,296,296,296,296,296,296,296,296,296,296,296,296,296,296,296,296,296,296,296,296,296,296,296,296,296,296,296,296,296,296,296,296,296,296,296,296,296,296,296,296,296,296,296,296,296,296,296,296,296,296,296,296,296,296,296,296,296,296,296,296,296,296,296,296,296,296,296,296,296,296,296,296,296,296,296,296,296,296,296,296,296,296,296,296,296,296,296,296,296,296,296","0,5,11,15,20,25,31,35,40,46,50,55,60,65,71,75,80,86,90,95,100,105,111,115,120,126,130,135,141,145,151,156,160,166,170,175,181,185,191,196,200,205,211,215,220,226,230,235,240,245,251,255,260,265,270,275,281,285,291,296,300,306,310,315,321,325,331,336,340,346,351,355,361,365,371,376,380,385,391,395,400,405,410,415,420,425,431,435,441,445,450,455,460,465,471,475,480,486,490,495,500","100","easy","","","","","",""
"","mousetracking","38","39205","0.0-4.0-2.4","803","","","","","<div style=""font-size:60px;"">+</div>","","","delay","FIX",",529,529,529,529,529,529,529,529,529,529,529,529,529,529,529,529,529,529,529,529,529,529,529,529,529,529,529,529,529,529,529,529,529,529,529,529,529,529,529,529,529,529,529,529,529,529,529,529,529,529,529,529,529,529,529,529,529,529,529,529,529,529,529,529,529,529,529,529,529,529,529,529,529,529,529,529,529,529,529,529,529,529,529,529,529,529,529,529,529,529,529,529,529,529,529,529,529,529,529,529,529,529,529,529,529,529,529,529,529,529,529,529,529,529,529,529,529,529,529,529,529,529,529,529,529,529,529,529,529,529,529,529,529,529,529,529,529,529,529,529,529,529,529,529,529,529,529,529,529,529,529,529,529,529,529,529,529,529,529,529",",296,296,296,296,296,296,296,296,296,296,296,296,296,296,296,296,296,296,296,296,296,296,296,296,296,296,296,296,296,296,296,296,296,296,296,296,296,296,296,296,296,296,296,296,296,296,296,296,296,296,296,296,296,296,296,296,296,296,296,296,296,296,296,296,296,296,296,296,296,296,296,296,296,296,296,296,296,296,296,296,296,296,296,296,296,296,296,296,296,296,296,296,296,296,296,296,296,296,296,296,296,296,296,296,296,296,296,296,296,296,296,296,296,296,296,296,296,296,296,296,296,296,296,296,296,296,296,296,296,296,296,296,296,296,296,296,296,296,296,296,296,296,296,296,296,296,296,296,296,296,296,296,296,296,296,296,296,296,296,296","0,6,11,15,21,26,31,36,40,46,51,55,61,66,71,76,81,86,91,95,101,106,111,116,121,126,131,136,141,146,152,156,161,166,171,176,181,186,192,196,201,206,211,216,221,226,232,236,241,246,251,256,261,266,272,276,281,286,291,296,301,306,311,316,321,326,331,336,341,346,351,355,361,366,371,376,381,386,391,396,401,406,412,416,421,426,431,435,441,446,451,456,461,466,471,476,481,486,491,496,501,506,511,516,521,526,531,536,540,546,552,556,561,567,571,576,581,586,592,596,601,607,611,616,621,626,632,636,641,647,651,656,661,666,672,676,681,686,691,696,701,706,712,716,721,726,731,736,741,746,752,756,761,767,771,776,781,786,792,796,801","160","easy","","","","","",""
"","mousetracking","39","39293","0.0-4.0-3.4","87","","","","","<div style=""font-size:60px;"">+</div>","","","rt_catch","FIX",",529,529,529,529,529,529,529,529,529,529,529,529,529,529,529,529,529",",296,296,296,296,296,296,296,296,296,296,296,296,296,296,296,296,296","0,5,11,15,21,26,30,35,41,45,51,56,60,66,70,75,81,85","17","easy","","","","","",""
"","mousetracking","40","39611","0.0-4.0-4.4","317","","","","","<div style=""font-size:60px;"">+</div>","","","rt_window","HIT",",529,529,529,529,529,529,529,529,529,529,529,529,529,529,529,529,529,529,529,529,529,529,529,529,529,529,529,529,529,529,529,529,529,529,529,529,529,529,529,529,529,529,529,529,529,529,529,529,529,529,529,529,529,529,529,529,529,529,529,529,529,529,529",",296,296,296,296,296,296,296,296,296,296,296,296,296,296,296,296,296,296,296,296,296,296,296,296,296,296,296,296,296,296,296,296,296,296,296,296,296,296,296,296,296,296,296,296,296,296,296,296,296,296,296,296,296,296,296,296,296,296,296,296,296,296,296","0,5,11,16,21,26,30,36,41,46,51,55,61,66,71,75,81,85,91,96,100,106,111,115,121,126,130,136,140,146,151,155,161,166,170,176,180,186,191,195,201,206,211,216,220,226,231,235,241,246,250,256,261,266,271,276,281,286,291,295,300,306,311,315","63","easy","","","","","",""
"","mousetracking","41","39722","0.0-4.0-5.4","108","","","","","<div style=""font-size:60px;"">+</div>","","","decision","ACQUIRE_TARG",",,,488,488,488,488,488,488,488,488,488,488,488,488,488,488,488,488,488,364,364",",,,271,271,271,271,271,271,271,271,271,271,271,271,271,271,271,271,271,163,163","0,5,11,15,21,26,30,35,40,46,50,56,60,66,70,75,81,85,90,96,100,106","21","easy","","","","","",""
"","mousetracking","42","39981","0.0-4.0-6.4","259","","","","","<div style=""font-size:60px;"">+</div>","","","targer_hold","SUCCESS",",355,355,355,355,355,355,355,355,355,355,355,355,355,355,355,355,355,355,355,355,355,355,355,355,355,355,355,355,355,355,355,355,355,355,355,355,355,355,355,355,355,355,355,355,355,355,355,355,355,355,355",",156,156,156,156,156,156,156,156,156,156,156,156,156,156,156,156,156,156,156,156,156,156,156,156,156,156,156,156,156,156,156,156,156,156,156,156,156,156,156,156,156,156,156,156,156,156,156,156,156,156,156","0,6,11,16,20,26,32,36,40,46,52,56,61,66,71,76,81,86,91,96,101,106,111,116,121,126,131,136,141,146,151,156,160,166,171,175,181,186,192,196,201,207,211,216,220,226,231,236,241,246,251,256","51","","50","","","","",""
"","html-keyboard-response","43","40983","0.0-4.0-7.4","null","","","","","<p style=color:green;>SUCCESS! + 50 points</p> SCORE: 120, Trial number: 4","null","","feedback","","","","","","easy","50","220","100","626.7766952966368,103.22330470336314","SUCCESS!",""
"","mousetracking","44","41301","0.0-4.0-0.5","318","","","","","<div style=""font-size:60px;"">+</div>","","","ITI","FIX",",,531,531,531,531,531,531,531,531,531,531,531,531,531,531,531,531,531,531,531,531,531,531,531,531,531,531,531,531,531,531,531,531,531,531,531,531,531,531,531,531,531,531,531,531,531,531,531,531,531,531,531,531,531,531,531,531,531,531,531,531,531,531",",,320,320,320,320,320,320,320,320,320,320,320,320,320,320,320,320,320,320,320,320,320,320,320,320,320,320,320,320,320,320,320,320,320,320,320,320,320,320,320,320,320,320,320,320,320,320,320,320,320,320,320,320,320,320,320,320,320,320,320,320,320,320","0,6,12,15,21,26,31,36,41,46,51,56,61,66,71,76,81,86,91,96,101,105,111,116,121,126,131,136,141,146,151,156,161,166,171,176,181,186,191,196,201,206,212,216,221,226,231,236,242,246,251,255,261,266,272,276,281,285,291,296,301,306,311,316","63","easy","","","","","",""
"","mousetracking","45","41809","0.0-4.0-1.5","507","","","","","<div style=""font-size:60px;"">+</div>","","","fixation","FIX",",524,524,524,524,524,524,524,524,524,524,524,524,524,524,524,524,524,524,524,524,524,524,524,524,524,524,524,524,524,524,524,524,524,524,524,524,524,524,524,524,524,524,524,524,524,524,524,524,524,524,524,524,524,524,524,524,524,524,524,524,524,524,524,524,524,524,524,524,524,524,524,524,524,524,524,524,524,524,524,524,524,524,524,524,524,524,524,524,524,524,524,524,524,524,524,524,524,524,524,524,524",",311,311,311,311,311,311,311,311,311,311,311,311,311,311,311,311,311,311,311,311,311,311,311,311,311,311,311,311,311,311,311,311,311,311,311,311,311,311,311,311,311,311,311,311,311,311,311,311,311,311,311,311,311,311,311,311,311,311,311,311,311,311,311,311,311,311,311,311,311,311,311,311,311,311,311,311,311,311,311,311,311,311,311,311,311,311,311,311,311,311,311,311,311,311,311,311,311,311,311,311,311","0,5,11,15,21,26,31,36,41,46,51,56,61,66,71,75,81,86,91,96,100,106,111,115,121,126,131,136,140,146,151,155,160,166,171,175,181,186,191,196,201,206,210,215,221,225,231,236,240,246,251,255,261,265,271,276,280,286,291,295,301,306,311,316,320,326,331,335,341,346,351,356,360,366,371,375,381,386,391,396,401,406,411,415,421,426,432,436,441,446,451,455,461,466,471,476,481,486,491,495,501,505","101","easy","","","","","",""
"","mousetracking","46","42534","0.0-4.0-2.5","724","","","","","<div style=""font-size:60px;"">+</div>","","","delay","FIX",",524,524,524,524,524,524,524,524,524,524,524,524,524,524,524,524,524,524,524,524,524,524,524,524,524,524,524,524,524,524,524,524,524,524,524,524,524,524,524,524,524,524,524,524,524,524,524,524,524,524,524,524,524,524,524,524,524,524,524,524,524,524,524,524,524,524,524,524,524,524,524,524,524,524,524,524,524,524,524,524,524,524,524,524,524,524,524,524,524,524,524,524,524,524,524,524,524,524,524,524,524,524,524,524,524,524,524,524,524,524,524,524,524,524,524,524,524,524,524,524,524,524,524,524,524,524,524,524,524,524,524,524,524,524,524,524,524,524,524,524,524,524,524,524",",311,311,311,311,311,311,311,311,311,311,311,311,311,311,311,311,311,311,311,311,311,311,311,311,311,311,311,311,311,311,311,311,311,311,311,311,311,311,311,311,311,311,311,311,311,311,311,311,311,311,311,311,311,311,311,311,311,311,311,311,311,311,311,311,311,311,311,311,311,311,311,311,311,311,311,311,311,311,311,311,311,311,311,311,311,311,311,311,311,311,311,311,311,311,311,311,311,311,311,311,311,311,311,311,311,311,311,311,311,311,311,311,311,311,311,311,311,311,311,311,311,311,311,311,311,311,311,311,311,311,311,311,311,311,311,311,311,311,311,311,311,311,311,311","0,6,12,16,21,26,32,36,41,47,51,56,60,66,71,75,81,86,92,96,101,106,111,116,120,126,132,136,141,147,151,156,160,166,172,176,181,187,191,196,202,206,211,215,221,226,231,236,241,246,251,255,261,266,271,276,281,286,292,296,301,306,311,316,321,326,332,336,341,346,351,356,360,366,372,376,381,386,391,396,400,406,411,415,421,426,431,436,440,446,451,456,461,467,471,476,480,486,492,496,501,506,511,516,521,526,532,536,541,546,551,556,561,566,572,576,581,586,591,596,601,606,612,616,621,627,631,636,641,646,652,656,661,667,671,676,681,686,692,696,701,707,711,716,721","144","easy","","","","","",""
"","mousetracking","47","42620","0.0-4.0-3.5","84","","","","","<div style=""font-size:60px;"">+</div>","","","rt_catch","FIX",",524,524,524,524,524,524,524,524,524,524,524,524,524,524,524,524",",311,311,311,311,311,311,311,311,311,311,311,311,311,311,311,311","0,6,11,16,21,26,32,36,41,46,51,56,61,66,72,76,81","16","easy","","","","","",""
"","mousetracking","48","42912","0.0-4.0-4.5","291","","","","","<div style=""font-size:60px;"">+</div>","","","rt_window","HIT",",524,524,524,524,524,524,524,524,524,524,524,524,524,524,524,524,524,524,524,524,524,524,524,524,524,524,524,524,524,524,524,524,524,524,524,524,524,524,524,524,524,524,524,524,524,524,524,524,524,524,524,524,524,524,524,524,524,524",",311,311,311,311,311,311,311,311,311,311,311,311,311,311,311,311,311,311,311,311,311,311,311,311,311,311,311,311,311,311,311,311,311,311,311,311,311,311,311,311,311,311,311,311,311,311,311,311,311,311,311,311,311,311,311,311,311,311","0,5,11,15,21,25,31,36,40,46,50,55,61,65,71,76,80,86,90,95,101,105,111,115,120,125,131,135,140,146,150,155,161,165,171,175,180,186,190,195,201,205,211,216,220,226,231,235,240,245,250,255,260,266,270,276,280,286,290","58","easy","","","","","",""
"","mousetracking","49","43055","0.0-4.0-5.5","142","","","","","<div style=""font-size:60px;"">+</div>","","","decision","ACQUIRE_TARG",",,,567,567,567,567,567,567,567,567,567,567,567,567,567,567,567,567,567,567,567,567,567,567,567,567,636,636",",,,360,360,360,360,360,360,360,360,360,360,360,360,360,360,360,360,360,360,360,360,360,360,360,360,481,481","0,6,11,16,21,26,31,36,42,46,51,56,62,66,71,76,82,87,91,96,101,106,111,116,122,126,131,136,142","28","easy","","","","","",""
"","mousetracking","50","43314","0.0-4.0-6.5","257","","","","","<div style=""font-size:60px;"">+</div>","","","targer_hold","SUCCESS",",637,637,637,637,637,637,637,637,637,637,637,637,637,637,637,637,637,637,637,637,637,637,637,637,637,637,637,637,637,637,637,637,637,637,637,637,637,637,637,637,637,637,637,637,637,637,637,637,637,637,637",",483,483,483,483,483,483,483,483,483,483,483,483,483,483,483,483,483,483,483,483,483,483,483,483,483,483,483,483,483,483,483,483,483,483,483,483,483,483,483,483,483,483,483,483,483,483,483,483,483,483,483","0,5,10,16,21,26,30,36,40,46,50,55,60,66,70,76,80,85,91,95,101,106,110,116,120,125,131,136,140,145,151,156,160,165,171,175,180,186,190,196,201,205,211,216,220,226,230,236,241,245,250,256","51","","50","","","","",""
"","html-keyboard-response","51","44319","0.0-4.0-7.5","null","","","","","<p style=color:green;>SUCCESS! + 50 points</p> SCORE: 170, Trial number: 5","null","","feedback","","","","","","easy","50","200","100","273.22330470336317,456.77669529663683","SUCCESS!",""
"","mousetracking","52","44627","0.0-4.0-0.6","307","","","","","<div style=""font-size:60px;"">+</div>","","","ITI","FIX",",528,528,528,528,528,528,528,528,528,528,528,528,528,528,528,528,528,528,528,528,528,528,528,528,528,528,528,528,528,528,528,528,528,528,528,528,528,528,528,528,528,528,528,528,528,528,528,528,528,528,528,528,528,528,528,528,528,528,528,528,528",",300,300,300,300,300,300,300,300,300,300,300,300,300,300,300,300,300,300,300,300,300,300,300,300,300,300,300,300,300,300,300,300,300,300,300,300,300,300,300,300,300,300,300,300,300,300,300,300,300,300,300,300,300,300,300,300,300,300,300,300,300","0,5,10,15,21,25,31,36,40,46,51,55,61,66,70,76,81,86,90,96,101,105,110,116,120,125,131,136,140,146,151,155,161,166,171,175,180,186,190,196,201,206,210,216,220,226,231,236,240,245,251,256,261,266,270,276,281,286,290,295,301,306","61","easy","","","","","",""
"","mousetracking","53","45135","0.0-4.0-1.6","507","","","","","<div style=""font-size:60px;"">+</div>","","","fixation","FIX",",523,523,523,523,523,523,523,523,523,523,523,523,523,523,523,523,523,523,523,523,523,523,523,523,523,523,523,523,523,523,523,523,523,523,523,523,523,523,523,523,523,523,523,523,523,523,523,523,523,523,523,523,523,523,523,523,523,523,523,523,523,523,523,523,523,523,523,523,523,523,523,523,523,523,523,523,523,523,523,523,523,523,523,523,523,523,523,523,523,523,523,523,523,523,523,523,523,523,523,523,523",",296,296,296,296,296,296,296,296,296,296,296,296,296,296,296,296,296,296,296,296,296,296,296,296,296,296,296,296,296,296,296,296,296,296,296,296,296,296,296,296,296,296,296,296,296,296,296,296,296,296,296,296,296,296,296,296,296,296,296,296,296,296,296,296,296,296,296,296,296,296,296,296,296,296,296,296,296,296,296,296,296,296,296,296,296,296,296,296,296,296,296,296,296,296,296,296,296,296,296,296,296","0,6,11,16,21,25,31,36,40,46,51,55,61,66,70,76,81,85,91,96,100,106,111,115,121,126,130,136,141,145,151,156,160,166,170,176,181,185,191,196,200,206,211,216,221,226,230,236,241,245,251,256,260,266,270,276,281,285,291,296,300,306,311,315,321,326,330,336,340,346,351,355,361,366,370,376,381,386,391,395,401,406,411,415,421,426,430,436,441,445,451,456,460,466,471,475,481,486,490,496,501,505","101","easy","","","","","",""
"","mousetracking","54","45741","0.0-4.0-2.6","604","","","","","<div style=""font-size:60px;"">+</div>","","","delay","FIX",",522,522,522,522,522,522,522,522,522,522,522,522,522,522,522,522,522,522,522,522,522,522,522,522,522,522,522,522,522,522,522,522,522,522,522,522,522,522,522,522,522,522,522,522,522,522,522,522,522,522,522,522,522,522,522,522,522,522,522,522,522,522,522,522,522,522,522,522,522,522,522,522,522,522,522,522,522,522,522,522,522,522,522,522,522,522,522,522,522,522,522,522,522,522,522,522,522,522,522,522,522,522,522,522,522,522,522,522,522,522,522,522,522,522,522,522,522,522,522,522",",296,296,296,296,296,296,296,296,296,296,296,296,296,296,296,296,296,296,296,296,296,296,296,296,296,296,296,296,296,296,296,296,296,296,296,296,296,296,296,296,296,296,296,296,296,296,296,296,296,296,296,296,296,296,296,296,296,296,296,296,296,296,296,296,296,296,296,296,296,296,296,296,296,296,296,296,296,296,296,296,296,296,296,296,296,296,296,296,296,296,296,296,296,296,296,296,296,296,296,296,296,296,296,296,296,296,296,296,296,296,296,296,296,296,296,296,296,296,296,296","0,6,11,16,21,26,31,36,41,46,51,56,61,66,71,75,81,86,91,96,101,106,111,116,121,126,131,136,141,146,151,155,161,166,171,176,181,186,191,195,201,206,211,216,220,226,231,235,241,246,251,256,261,266,271,275,281,286,291,296,300,306,311,315,321,326,331,336,340,346,351,355,361,366,371,376,380,386,391,395,401,406,411,416,420,426,431,435,441,446,451,456,460,466,471,475,481,486,491,496,500,506,511,515,521,526,531,536,541,546,552,556,561,566,571,576,581,587,591,596,600","120","easy","","","","","",""
"","mousetracking","55","45828","0.0-4.0-3.6","87","","","","","<div style=""font-size:60px;"">+</div>","","","rt_catch","FIX",",522,522,522,522,522,522,522,522,522,522,522,522,522,522,522,522,522",",296,296,296,296,296,296,296,296,296,296,296,296,296,296,296,296,296","0,6,11,16,21,26,31,36,41,46,51,57,61,66,72,76,81,87","17","easy","","","","","",""
"","mousetracking","56","46145","0.0-4.0-4.6","315","","","","","<div style=""font-size:60px;"">+</div>","","","rt_window","HIT",",522,522,522,522,522,522,522,522,522,522,522,522,522,522,522,522,522,522,522,522,522,522,522,522,522,522,522,522,522,522,522,522,522,522,522,522,522,522,522,522,522,522,522,522,522,522,522,522,522,522,522,522,522,522,522,522,522,522,522,522,522,522",",296,296,296,296,296,296,296,296,296,296,296,296,296,296,296,296,296,296,296,296,296,296,296,296,296,296,296,296,296,296,296,296,296,296,296,296,296,296,296,296,296,296,296,296,296,296,296,296,296,296,296,296,296,296,296,296,296,296,296,296,296,296","0,6,11,16,20,26,32,36,41,46,51,55,61,66,71,76,81,86,91,96,100,106,112,116,121,126,131,136,140,146,151,155,161,166,172,176,181,186,191,196,201,206,212,216,221,226,231,236,240,246,251,255,261,265,271,276,281,286,291,296,301,306,311","62","easy","","","","","",""
"","mousetracking","57","46271","0.0-4.0-5.6","125","","","","","<div style=""font-size:60px;"">+</div>","","","decision","ACQUIRE_TARG",",,,475,475,475,475,475,475,475,475,475,475,475,475,475,475,475,475,475,475,475,475,369,369",",,,260,260,260,260,260,260,260,260,260,260,260,260,260,260,260,260,260,260,260,260,144,144","0,5,11,16,21,25,31,36,41,45,51,56,60,66,71,76,81,85,91,95,101,106,111,117,120","24","easy","","","","","",""
"","mousetracking","58","46531","0.0-4.0-6.6","258","","","","","<div style=""font-size:60px;"">+</div>","","","targer_hold","SUCCESS",",,365,365,365,365,365,365,365,365,365,365,365,365,365,365,365,365,365,365,365,365,365,365,365,365,365,365,365,365,365,365,365,365,365,365,365,365,365,365,365,365,365,365,365,365,365,365,365,365,365,365",",,138,138,138,138,138,138,138,138,138,138,138,138,138,138,138,138,138,138,138,138,138,138,138,138,138,138,138,138,138,138,138,138,138,138,138,138,138,138,138,138,138,138,138,138,138,138,138,138,138,138","0,5,10,16,21,26,30,36,40,45,51,56,61,66,70,76,81,86,90,95,101,106,111,115,121,126,130,136,140,146,150,155,161,166,171,175,181,186,191,196,201,206,210,215,221,226,230,236,241,246,250,256","51","","50","","","","",""
"","html-keyboard-response","59","47532","0.0-4.0-7.6","null","","","","","<p style=color:green;>SUCCESS! + 50 points</p> SCORE: 220, Trial number: 6","null","","feedback","","","","","","easy","50","200","50","626.7766952966368,103.22330470336314","SUCCESS!",""
"","mousetracking","60","47967","0.0-4.0-0.7","434","","","","","<div style=""font-size:60px;"">+</div>","","","ITI","FIX",",533,533,533,533,533,533,533,533,533,533,533,533,533,533,533,533,533,533,533,533,533,533,533,533,533,533,533,533,533,533,533,533,533,533,533,533,533,533,533,533,533,533,533,533,533,533,533,533,533,533,533,533,533,533,533,533,533,533,533,533,533,533,533,533,533,533,533,533,533,533,533,533,533,533,533,533,533,533,533,533,533,533,533,533,533,533",",327,327,327,327,327,327,327,327,327,327,327,327,327,327,327,327,327,327,327,327,327,327,327,327,327,325,325,325,325,325,325,325,325,325,325,325,325,325,325,325,325,325,325,325,325,325,325,325,325,325,325,325,325,325,325,325,325,325,325,325,325,325,325,325,325,325,325,325,325,325,325,325,325,325,325,325,325,325,325,325,325,325,325,325,325,325","0,6,11,16,22,26,31,36,41,46,51,56,61,66,71,75,81,86,91,96,101,106,111,116,121,127,131,136,141,145,151,156,162,167,171,176,181,186,190,196,200,206,211,216,221,226,231,236,241,246,250,256,261,266,271,276,281,286,290,296,301,307,311,316,322,326,331,336,341,347,351,356,362,366,371,376,382,386,391,396,401,406,411,416,421,426,431","86","easy","","","","","",""
"","mousetracking","61","48483","0.0-4.0-1.7","515","","","","","<div style=""font-size:60px;"">+</div>","","","fixation","FIX",",,533,533,533,533,533,533,533,533,533,533,533,533,533,533,533,533,533,533,533,533,533,533,533,533,533,533,533,533,533,533,533,533,533,533,533,533,533,533,533,533,533,533,533,533,533,533,533,533,533,533,533,533,533,533,533,533,533,533,533,533,533,533,533,533,533,533,533,533,533,533,533,533,533,533,533,533,533,533,533,533,533,533,533,533,533,533,533,533,533,533,533,533,533,533,533,533,533,533,533,533,533",",,315,315,315,315,315,315,315,315,315,315,315,315,315,315,315,315,315,315,315,315,315,315,315,315,315,315,315,315,315,315,315,315,315,315,315,315,315,315,315,315,315,315,315,315,315,315,315,315,315,315,315,315,315,315,315,315,315,315,315,315,315,315,315,315,315,315,315,315,315,315,315,315,315,315,315,315,315,315,315,315,315,315,315,315,315,315,315,315,315,315,315,315,315,315,315,315,315,315,315,315,315","0,5,11,16,20,25,31,35,40,46,51,55,60,65,70,76,81,85,91,96,100,106,111,115,120,126,130,136,140,145,151,155,160,166,170,175,181,185,191,196,200,206,210,215,221,225,231,236,240,245,251,256,260,266,270,275,281,285,291,296,300,306,311,315,321,325,330,336,340,345,351,355,360,366,370,375,381,385,391,395,400,406,410,415,421,425,431,436,440,445,451,455,460,466,470,475,481,485,491,495,500,506,510","102","easy","","","","","",""
"","mousetracking","62","49500","0.0-4.0-2.7","1016","","","","","<div style=""font-size:60px;"">+</div>","","","delay","FIX",",533,533,533,533,533,533,533,533,533,533,533,533,533,533,533,533,533,533,533,533,533,533,533,533,533,533,533,533,533,533,533,533,533,533,533,533,533,533,533,533,533,533,533,533,533,533,533,533,533,533,533,533,533,533,533,533,533,533,533,533,533,533,533,533,533,533,533,533,533,533,533,533,533,533,533,533,533,533,533,533,533,533,533,533,533,533,533,533,533,533,533,533,533,533,533,533,533,533,533,533,533,533,533,533,533,533,533,533,533,533,533,533,533,533,533,533,533,533,533,533,533,533,533,533,533,533,533,533,533,533,533,533,533,533,533,533,533,533,533,533,533,533,533,533,533,533,533,533,533,533,533,533,533,533,533,533,533,533,533,533,533,533,533,533,533,533,533,533,533,533,533,533,533,533,533,533,533,533,533,533,533,533,533,533,533,533,533,533,533,533,533,533,533,533,533,533,533,533,533,533,533,533,533",",311,311,311,311,311,311,311,311,311,311,311,311,311,311,311,311,311,311,311,311,311,311,311,311,311,311,311,311,311,311,311,311,311,311,311,311,311,311,311,311,311,311,311,311,311,311,311,311,311,311,311,311,311,311,311,311,311,311,311,311,311,311,311,311,311,311,311,311,311,311,311,311,311,311,311,311,311,311,311,311,311,311,311,311,311,311,311,311,311,311,311,311,311,311,311,311,311,311,311,311,311,311,311,311,311,311,311,311,311,311,311,311,311,311,311,311,311,311,311,311,311,311,311,311,311,311,311,311,311,311,311,311,311,311,311,311,311,311,311,311,311,311,311,311,311,311,311,311,311,311,311,311,311,311,311,311,311,311,311,311,311,311,311,311,311,311,311,311,311,311,311,311,311,311,311,311,311,311,311,311,311,311,311,311,311,311,311,311,311,311,311,311,311,311,311,311,311,311,311,311,311,311,311","0,6,11,16,20,26,31,35,41,46,52,56,61,66,71,75,81,86,91,96,101,106,111,116,120,126,131,135,141,146,152,156,161,165,171,176,180,186,191,195,201,206,211,216,221,226,231,235,241,246,252,256,261,266,271,276,280,286,291,295,301,306,311,316,321,326,331,336,340,346,351,356,361,366,371,376,380,386,391,396,401,406,411,416,420,426,431,435,441,446,452,456,461,465,471,475,481,486,491,496,500,506,511,516,521,526,531,536,541,546,551,556,561,566,571,576,581,586,591,596,600,606,611,616,621,626,631,636,641,646,651,655,661,666,672,676,681,685,691,696,701,706,711,716,721,726,732,736,741,745,751,756,760,766,771,776,781,786,791,796,800,806,811,815,821,826,831,836,840,846,851,855,861,866,871,876,881,886,891,895,901,906,911,916,921,926,931,935,941,946,952,956,961,966,971,976,980,986,991,996,1001,1006,1011,1016","203","easy","","","","","",""
"","mousetracking","63","49589","0.0-4.0-3.7","88","","","","","<div style=""font-size:60px;"">+</div>","","","rt_catch","FIX",",533,533,533,533,533,533,533,533,533,533,533,533,533,533,533,533,533",",311,311,311,311,311,311,311,311,311,311,311,311,311,311,311,311,311","0,6,11,16,20,26,32,36,41,46,51,56,61,66,72,76,81,87","17","easy","","","","","",""
"","mousetracking","64","49828","0.0-4.0-4.7","238","","","","","<div style=""font-size:60px;"">+</div>","","","rt_window","HIT",",533,533,533,533,533,533,533,533,533,533,533,533,533,533,533,533,533,533,533,533,533,533,533,533,533,533,533,533,533,533,533,533,533,533,533,533,533,533,533,533,533,533,533,533,533,533,533",",311,311,311,311,311,311,311,311,311,311,311,311,311,311,311,311,311,311,311,311,311,311,311,311,311,311,311,311,311,311,311,311,311,311,311,311,311,311,311,311,311,311,311,311,311,311,311","0,6,10,16,21,27,31,36,41,46,51,56,61,66,71,76,81,86,91,95,101,106,111,116,121,127,131,136,141,146,151,156,161,166,171,176,181,186,190,195,201,205,211,216,221,226,231,236","47","easy","","","","","",""
"","mousetracking","65","49922","0.0-4.0-5.7","92","","","","","<div style=""font-size:60px;"">+</div>","","","decision","ACQUIRE_TARG",",,,,580,580,580,580,580,580,580,580,580,580,580,580,580,656,656",",,,,368,368,368,368,368,368,368,368,368,368,368,368,368,487,487","0,5,11,15,21,26,30,35,41,45,51,56,61,66,71,76,81,85,91","18","easy","","","","","",""
"","mousetracking","66","50182","0.0-4.0-6.7","259","","","","","<div style=""font-size:60px;"">+</div>","","","targer_hold","SUCCESS",",,666,666,666,666,666,666,666,666,666,666,666,666,666,666,666,666,666,666,666,666,666,666,666,666,666,666,666,666,666,666,666,666,666,666,666,666,666,666,666,666,666,666,666,666,666,666,666,666,666,666",",,504,504,504,504,504,504,504,504,504,504,504,504,504,504,504,504,504,504,504,504,504,504,504,504,504,504,504,504,504,504,504,504,504,504,504,504,504,504,504,504,504,504,504,504,504,504,504,504,504,504","0,6,11,16,21,26,31,36,41,46,51,56,61,66,71,76,81,86,91,96,101,106,111,117,121,126,130,136,141,146,151,156,161,166,171,176,181,187,191,196,200,206,211,216,221,226,231,236,241,246,251,256","51","","20","","","","",""
"","html-keyboard-response","67","51186","0.0-4.0-7.7","null","","","","","<p style=color:green;>SUCCESS! + 20 points</p> SCORE: 240, Trial number: 7","null","","feedback","","","","","","easy","20","230","100","273.22330470336317,456.77669529663683","SUCCESS!",""
"","mousetracking","68","51501","0.0-4.0-0.8","314","","","","","<div style=""font-size:60px;"">+</div>","","","ITI","FIX",",,539,539,539,539,539,539,539,539,539,539,539,539,539,539,539,539,539,539,539,539,539,539,539,539,539,539,539,539,539,539,539,539,539,539,539,539,539,539,539,539,539,539,539,539,539,539,539,539,539,539,539,539,539,539,539,539,539,539,539,539,539",",,296,296,296,296,296,296,296,296,296,296,296,296,296,296,296,296,296,296,296,296,296,296,296,296,296,296,296,296,296,296,296,296,296,296,296,296,296,296,296,296,296,296,296,296,296,296,296,296,296,296,296,296,296,296,296,296,296,296,296,296,296","0,6,11,16,20,25,30,36,41,45,51,55,61,66,70,75,80,86,90,95,101,106,111,116,121,126,131,135,141,146,150,156,161,165,170,176,180,186,191,195,201,205,211,216,220,226,231,235,241,246,250,256,261,265,271,276,280,286,291,295,301,306,310","62","easy","","","","","",""
"","mousetracking","69","52010","0.0-4.0-1.8","507","","","","","<div style=""font-size:60px;"">+</div>","","","fixation","FIX",",536,536,536,536,536,536,536,536,536,536,536,536,536,536,536,536,536,536,536,536,536,536,536,536,536,536,536,536,536,536,536,536,536,536,536,536,536,536,536,536,536,536,536,536,536,536,536,536,536,536,536,536,536,536,536,536,536,536,536,536,536,536,536,536,536,536,536,536,536,536,536,536,536,536,536,536,536,536,536,536,536,536,536,536,536,536,536,536,536,536,536,536,536,536,536,536,536,536,536,536,536",",292,292,292,292,292,292,292,292,292,292,292,292,292,292,292,292,292,292,292,292,292,292,292,292,292,292,292,292,292,292,292,292,292,292,292,292,292,292,292,292,292,292,292,292,292,292,292,292,292,292,292,292,292,292,292,292,292,292,292,292,292,292,292,292,292,292,292,292,292,292,292,292,292,292,292,292,292,292,292,292,292,292,292,292,292,292,292,292,292,292,292,292,292,292,292,292,292,292,292,292,292","0,6,11,16,20,26,30,35,41,45,51,55,60,66,70,75,81,86,91,96,101,105,110,116,121,126,130,135,141,146,150,156,160,165,171,175,180,186,191,196,201,206,212,216,221,225,231,236,240,246,251,255,261,266,271,276,281,286,291,296,301,306,311,316,321,326,330,335,341,345,351,356,361,366,371,376,381,386,391,395,401,405,411,416,420,426,431,435,441,446,451,456,461,466,471,475,480,486,491,496,501,506","101","easy","","","","","",""
"","mousetracking","70","52659","0.0-4.0-2.8","647","","","","","<div style=""font-size:60px;"">+</div>","","","delay","FIX",",530,530,530,530,530,530,530,530,530,530,530,530,530,530,530,530,530,530,530,530,530,530,530,530,530,530,530,530,530,530,530,530,530,530,530,530,530,530,530,530,530,530,530,530,530,530,530,530,530,530,530,530,530,530,530,530,530,530,530,530,530,530,530,530,530,530,530,530,530,530,530,530,530,530,530,530,530,530,530,530,530,530,530,530,530,530,530,530,530,530,530,530,530,530,530,530,530,530,530,530,530,530,530,530,530,530,530,530,530,530,530,530,530,530,530,530,530,530,530,530,530,530,530,530,530,530,530,530,530",",298,298,298,298,298,298,298,298,298,298,298,298,298,298,298,298,298,298,298,298,298,298,298,298,298,298,298,298,298,298,298,298,298,298,298,298,298,298,298,298,298,298,298,298,298,298,298,298,298,298,298,298,298,298,298,298,298,298,298,298,298,298,298,298,298,298,298,298,298,298,298,298,298,298,298,298,298,298,298,298,298,298,298,298,298,298,298,298,298,298,298,298,298,298,298,298,298,298,298,298,298,298,298,298,298,298,298,298,298,298,298,298,298,298,298,298,298,298,298,298,298,298,298,298,298,298,298,298,298","0,6,11,16,21,26,31,36,40,46,51,55,61,65,71,76,80,86,91,95,101,106,111,116,121,126,131,135,141,145,151,156,160,166,171,175,181,186,191,196,201,206,211,215,221,226,231,236,241,246,250,256,260,266,271,275,281,286,291,296,300,306,311,315,321,326,331,336,341,346,351,356,361,366,370,375,381,385,391,396,400,406,411,415,421,425,431,436,441,446,450,455,461,465,471,476,480,486,490,495,501,505,511,516,520,526,531,536,541,545,551,556,560,566,571,575,581,586,591,596,601,606,611,615,621,625,631,636,640,646","129","easy","","","","","",""
"","mousetracking","71","52744","0.0-4.0-3.8","84","","","","","<div style=""font-size:60px;"">+</div>","","","rt_catch","FIX",",530,530,530,530,530,530,530,530,530,530,530,530,530,530,530,530",",298,298,298,298,298,298,298,298,298,298,298,298,298,298,298,298","0,6,10,15,20,25,31,36,40,46,50,55,61,65,71,76,80","16","easy","","","","","",""
"","mousetracking","72","53121","0.0-4.0-4.8","375","","","","","<div style=""font-size:60px;"">+</div>","","","rt_window","MISSED",",530,530,530,530,530,530,530,530,530,530,530,530,530,530,530,530,530,530,530,530,530,530,530,530,530,530,530,530,530,530,530,530,530,530,530,530,530,530,530,530,530,530,530,530,530,530,530,530,530,530,530,530,530,530,530,530,530,530,530,530,530,530,530,530,530,530,530,530,530,530,530,530,530,530",",298,298,298,298,298,298,298,298,298,298,298,298,298,298,298,298,298,298,298,298,298,298,298,298,298,298,298,298,298,298,298,298,298,298,298,298,298,298,298,298,298,298,298,298,298,298,298,298,298,298,298,298,298,298,298,298,298,298,298,298,298,298,298,298,298,298,298,298,298,298,298,298,298,298","0,5,11,16,20,26,30,35,41,45,51,56,60,66,71,75,81,86,90,95,101,105,111,115,121,126,130,135,141,145,151,156,160,166,171,175,181,186,191,196,201,205,211,216,221,226,230,235,241,245,251,255,260,266,270,275,281,285,291,295,300,306,311,316,320,326,331,335,341,345,351,356,360,366,370","74","easy","","","","","",""
"","mousetracking","73","53290","0.0-4.0-5.8","168","","","","","<div style=""font-size:60px;"">+</div>","","","decision","ACQUIRE_TARG",",530,530,530,530,530,530,530,530,530,530,530,530,530,530,530,530,530,505,505,505,505,505,505,505,505,505,505,505,505,505,505,346,346",",298,298,298,298,298,298,298,298,298,298,298,298,298,298,298,298,298,289,289,289,289,289,289,289,289,289,289,289,289,289,289,161,161","1,7,11,16,22,27,31,36,41,46,52,56,61,67,71,76,81,87,92,96,101,107,112,116,121,126,132,137,141,146,152,156,161,166","33","easy","","","","","",""
"","mousetracking","74","53548","0.0-4.0-6.8","258","","","","","<div style=""font-size:60px;"">+</div>","","","targer_hold","SUCCESS",",330,330,330,330,330,330,330,330,330,330,330,330,330,330,330,330,330,330,330,330,330,330,330,330,330,330,330,330,330,330,330,330,330,330,330,330,330,330,330,330,330,330,330,330,330,330,330,330,330,330,330",",146,146,146,146,146,146,146,146,146,146,146,146,146,146,146,146,146,146,146,146,146,146,146,146,146,146,146,146,146,146,146,146,146,146,146,146,146,146,146,146,146,146,146,146,146,146,146,146,146,146,146","0,5,11,16,20,26,31,36,40,46,51,56,60,65,71,76,81,85,91,96,101,106,111,116,121,126,131,136,140,146,151,156,161,166,171,176,181,185,191,196,200,206,211,216,221,226,231,236,240,246,251,256","51","","20","","","","",""
"","html-keyboard-response","75","54553","0.0-4.0-7.8","null","","","","","<p style=color:red;>TOO SLOW - 20 points</p> SCORE: 240, Trial number: 7","null","","feedback","","","","","","easy","20","200","100","626.7766952966368,103.22330470336314","MISSED",""
"","mousetracking","76","54861","0.0-4.0-0.9","307","","","","","<div style=""font-size:60px;"">+</div>","","","ITI","FIX",",539,539,539,539,539,539,539,539,539,539,539,539,539,539,539,539,539,539,539,539,539,539,539,539,539,539,539,539,539,539,539,539,539,539,539,539,539,539,539,539,539,539,539,539,539,539,539,539,539,539,539,539,539,539,539,539,539,539,539,539,539",",307,307,307,307,307,307,307,307,307,307,307,307,307,307,307,307,307,307,307,307,307,307,307,307,307,307,307,307,307,307,307,307,307,307,307,307,307,307,307,307,307,307,307,307,307,307,307,307,307,307,307,307,307,307,307,307,307,307,307,307,307","0,6,11,16,20,26,31,35,41,45,51,56,60,66,71,75,81,86,91,96,100,106,111,115,121,126,131,136,141,146,151,155,161,166,171,176,181,186,191,195,201,206,211,216,221,225,231,236,240,246,250,255,261,265,271,276,280,286,291,295,301,306","61","easy","","","","","",""
"","mousetracking","77","55366","0.0-4.0-1.9","504","","","","","<div style=""font-size:60px;"">+</div>","","","fixation","FIX",",539,539,539,539,539,539,539,539,539,539,539,539,539,539,539,539,539,539,539,539,539,539,539,539,539,539,539,539,539,539,539,539,539,539,539,539,539,539,539,539,539,539,539,539,539,539,539,539,539,539,539,539,539,539,539,539,539,539,539,539,539,539,539,539,539,539,539,539,539,539,539,539,539,539,539,539,539,539,539,539,539,539,539,539,539,539,539,539,539,539,539,539,539,539,539,539,539,539,539,539",",307,307,307,307,307,307,307,307,307,307,307,307,307,307,307,307,307,307,307,307,307,307,307,307,307,307,307,307,307,307,307,307,307,307,307,307,307,307,307,307,307,307,307,307,307,307,307,307,307,307,307,307,307,307,307,307,307,307,307,307,307,307,307,307,307,307,307,307,307,307,307,307,307,307,307,307,307,307,307,307,307,307,307,307,307,307,307,307,307,307,307,307,307,307,307,307,307,307,307,307","0,6,11,16,20,26,31,36,41,45,51,56,60,66,71,75,81,86,91,96,100,106,111,115,120,126,131,136,140,145,150,156,160,166,171,175,180,186,191,195,201,206,210,216,221,226,231,236,241,246,250,256,261,266,271,275,281,286,290,296,301,305,311,316,320,326,331,336,341,345,351,356,360,366,370,376,381,385,391,396,400,406,411,415,421,426,430,436,441,445,451,456,460,466,471,476,481,485,491,496,500","100","easy","","","","","",""
"","mousetracking","78","55943","0.0-4.0-2.9","576","","","","","<div style=""font-size:60px;"">+</div>","","","delay","FIX",",531,531,531,531,531,531,531,531,531,531,531,531,531,531,531,531,531,531,531,531,531,531,531,531,531,531,531,531,531,531,531,531,531,531,531,531,531,531,531,531,531,531,531,531,531,531,531,531,531,531,531,531,531,531,531,531,531,531,531,531,531,531,531,531,531,531,531,531,531,531,531,531,531,531,531,531,531,531,531,531,531,531,531,531,531,531,531,531,531,531,531,531,531,531,531,531,531,531,531,531,531,531,531,531,531,531,531,531,531,531,531,531,531,531",",307,307,307,307,307,307,307,307,307,307,307,307,307,307,307,307,307,307,307,307,307,307,307,307,307,307,307,307,307,307,307,307,307,307,307,307,307,307,307,307,307,307,307,307,307,307,307,307,307,307,307,307,307,307,307,307,307,307,307,307,307,307,307,307,307,307,307,307,307,307,307,307,307,307,307,307,307,307,307,307,307,307,307,307,307,307,307,307,307,307,307,307,307,307,307,307,307,307,307,307,307,307,307,307,307,307,307,307,307,307,307,307,307,307","0,6,11,16,21,27,31,36,41,46,52,55,61,66,71,76,81,86,92,96,101,106,111,116,121,126,132,136,141,147,151,156,161,166,172,176,181,187,191,196,202,206,210,216,221,227,231,236,241,246,252,256,261,266,271,276,281,286,292,296,301,306,311,316,321,326,332,336,342,346,351,355,361,366,371,376,381,386,391,395,401,406,411,416,421,426,431,435,441,446,451,456,461,466,471,475,481,486,491,496,501,506,512,516,521,527,531,536,541,546,552,556,561,567,571","114","easy","","","","","",""
"","mousetracking","79","56032","0.0-4.0-3.9","88","","","","","<div style=""font-size:60px;"">+</div>","","","rt_catch","FIX",",531,531,531,531,531,531,531,531,531,531,531,531,531,531,531,531,531",",307,307,307,307,307,307,307,307,307,307,307,307,307,307,307,307,307","0,6,12,16,21,26,31,36,41,46,51,56,61,66,72,76,81,86","17","easy","","","","","",""
"","mousetracking","80","56345","0.0-4.0-4.9","311","","","","","<div style=""font-size:60px;"">+</div>","","","rt_window","HIT",",531,531,531,531,531,531,531,531,531,531,531,531,531,531,531,531,531,531,531,531,531,531,531,531,531,531,531,531,531,531,531,531,531,531,531,531,531,531,531,531,531,531,531,531,531,531,531,531,531,531,531,531,531,531,531,531,531,531,531,531,531,531",",307,307,307,307,307,307,307,307,307,307,307,307,307,307,307,307,307,307,307,307,307,307,307,307,307,307,307,307,307,307,307,307,307,307,307,307,307,307,307,307,307,307,307,307,307,307,307,307,307,307,307,307,307,307,307,307,307,307,307,307,307,307","0,6,11,16,21,26,31,35,41,46,51,56,61,66,71,76,81,86,91,96,101,107,111,116,121,126,131,136,141,146,151,156,161,167,171,176,182,186,191,195,201,206,210,216,221,226,231,236,241,246,251,256,261,266,271,276,281,287,291,296,301,306,311","62","easy","","","","","",""
"","mousetracking","81","56751","0.0-4.0-5.9","null","","","","","<div style=""font-size:60px;"">+</div>","","","decision","WRONG_TARG",",,,469,469,469,469,469,469,469,469,469,469,469,469,469,469,469,469,469,469,469,469,469,469,469,469,469,469,469,469,469,469,469,469,469,469,469,469,469,469,469,469,469,469,469,469,469,469,469,469,469,469,469,469,469,469,469,469,469,469,469,469,469,469,469,469,469,469,469,469,469,469,469,469,469,469,469,469,469,469,469",",,,245,245,245,245,245,245,245,245,245,245,245,245,245,245,245,245,245,245,245,245,245,245,245,245,245,245,245,245,245,245,245,245,245,245,245,245,245,245,245,245,245,245,245,245,245,245,245,245,245,245,245,245,245,245,245,245,245,245,245,245,245,245,245,245,245,245,245,245,245,245,245,245,245,245,245,245,245,245,245","0,5,11,15,20,26,31,35,40,46,50,56,60,65,71,75,80,85,90,96,100,105,110,115,120,125,130,135,141,145,150,155,161,165,170,175,181,185,190,196,200,206,210,216,220,226,231,235,241,245,250,256,260,266,270,275,281,285,290,295,301,305,310,315,320,326,330,336,340,346,351,355,360,366,370,375,380,385,391,395,400,405","81","easy","","","","","",""
"","mousetracking","82","57103","0.0-4.0-6.9","350","","","","","<div style=""font-size:60px;"">+</div>","","","targer_hold","SUCCESS",",,358,358,358,358,358,358,358,358,358,358,358,358,358,358,358,358,358,358,358,358,358,358,358,358,358,358,358,358,358,358,358,358,358,358,358,358,358,358,358,358,358,358,358,358,358,358,358,358,358,358,358,358,358,358,358,358,358,358,358,358,358,358,358,358,358,358,358,358",",,101,101,101,101,101,101,101,101,101,101,101,101,101,101,101,101,101,108,108,108,108,108,108,108,108,108,108,108,108,108,108,108,108,108,108,108,108,108,108,108,108,108,108,108,108,108,108,108,108,108,108,108,108,108,108,108,108,108,108,108,108,108,108,108,108,108,108,108","0,5,11,16,20,26,30,36,40,46,51,55,60,65,71,75,80,86,91,95,100,106,111,116,120,126,130,136,140,146,151,155,160,165,170,176,181,185,191,196,200,206,211,215,221,226,230,236,240,245,251,255,261,266,270,276,281,285,291,296,300,305,311,316,321,326,330,336,341,345","69","","10","","","","",""
"","html-keyboard-response","83","58108","0.0-4.0-7.9","null","","","","","<p style=color:red;>REACH ERROR - 20 points</p> SCORE: 240, Trial number: 7","null","","feedback","","","","","","easy","10","230","50","626.7766952966368,103.22330470336314","REACH ERROR",""
"","mousetracking","84","58417","0.0-4.0-0.10","307","","","","","<div style=""font-size:60px;"">+</div>","","","ITI","FIX",",547,547,547,547,547,547,547,547,547,547,547,547,547,547,547,547,547,547,547,547,547,547,547,547,547,547,547,547,547,547,547,547,547,547,547,547,547,547,547,547,547,547,547,547,547,547,547,547,547,547,547,547,547,547,547,547,547,547,547,547,547",",317,317,317,317,317,317,317,317,317,317,317,317,317,317,317,317,317,317,317,317,317,317,317,317,317,317,317,317,317,317,317,317,317,317,317,317,317,317,317,317,317,317,317,317,317,317,317,317,317,317,317,317,317,317,317,317,317,317,317,317,317","0,6,10,15,20,25,31,35,41,45,50,55,61,65,70,76,80,86,90,95,101,105,110,116,120,125,131,135,140,146,150,155,161,165,170,175,180,185,190,196,200,206,210,215,221,225,230,235,241,245,250,256,260,265,270,275,280,286,290,295,301,305","61","easy","","","","","",""
"","mousetracking","85","58924","0.0-4.0-1.10","506","","","","","<div style=""font-size:60px;"">+</div>","","","fixation","FIX",",547,547,547,547,547,547,547,547,547,547,547,547,547,547,547,547,547,547,547,547,547,547,547,547,547,547,547,547,547,547,547,547,547,547,547,547,547,547,547,547,547,547,547,547,547,547,547,547,547,547,547,547,547,547,547,547,547,547,547,547,547,547,547,547,547,547,547,547,547,547,547,547,547,547,547,547,547,547,547,547,547,547,547,547,547,547,547,547,547,547,547,547,547,547,547,547,547,547,547,547,547",",317,317,317,317,317,317,317,317,317,317,317,317,317,317,317,317,317,317,317,317,317,317,317,317,317,317,317,317,317,317,317,317,317,317,317,317,317,317,317,317,317,317,317,317,317,317,317,317,317,317,317,317,317,317,317,317,317,317,317,317,317,317,317,317,317,317,317,317,317,317,317,317,317,317,317,317,317,317,317,317,317,317,317,317,317,317,317,317,317,317,317,317,317,317,317,317,317,317,317,317,317","0,5,10,15,21,26,30,35,41,45,50,55,60,66,70,75,80,86,91,96,100,106,110,115,121,126,130,136,140,146,151,156,161,166,170,175,181,185,190,196,201,206,210,215,221,226,230,236,240,246,250,256,260,266,271,275,280,286,291,295,301,306,310,315,321,326,330,335,341,345,350,356,361,365,371,376,380,386,391,395,401,406,410,415,421,425,430,436,440,446,451,455,461,466,471,476,480,486,490,496,501,506","101","easy","","","","","",""
"","mousetracking","86","59770","0.0-4.0-2.10","844","","","","","<div style=""font-size:60px;"">+</div>","","","delay","FIX",",528,528,528,528,528,528,528,528,528,528,528,528,528,528,528,528,528,528,528,528,528,528,528,528,528,528,528,528,528,528,528,528,528,528,528,528,528,528,528,528,528,528,528,528,528,528,528,528,528,528,528,528,528,528,528,528,528,528,528,528,528,528,528,528,528,528,528,528,528,528,528,528,528,528,528,528,528,528,528,528,528,528,528,528,528,528,528,528,528,528,528,528,528,528,528,528,528,528,528,528,528,528,528,528,528,528,528,528,528,528,528,528,528,528,528,528,528,528,528,528,528,528,528,528,528,528,528,528,528,528,528,528,528,528,528,528,528,528,528,528,528,528,528,528,528,528,528,528,528,528,528,528,528,528,528,528,528,528,528,528,528,528,528,528,528,528,528,528",",298,298,298,298,298,298,298,298,298,298,298,298,298,298,298,298,298,298,298,298,298,298,298,298,298,298,298,298,298,298,298,298,298,298,298,298,298,298,298,298,298,298,298,298,298,298,298,298,298,298,298,298,298,298,298,298,298,298,298,298,298,298,298,298,298,298,298,298,298,298,298,298,298,298,298,298,298,298,298,298,298,298,298,298,298,298,298,298,298,298,298,298,298,298,298,298,298,298,298,298,298,298,298,298,298,298,298,298,298,298,298,298,298,298,298,298,298,298,298,298,298,298,298,298,298,298,298,298,298,298,298,298,298,298,298,298,298,298,298,298,298,298,298,298,298,298,298,298,298,298,298,298,298,298,298,298,298,298,298,298,298,298,298,298,298,298,298,298","0,6,10,16,21,26,31,36,41,45,51,55,61,66,71,76,81,85,91,96,100,106,111,116,121,126,131,136,141,146,151,156,160,166,171,176,181,186,192,196,201,206,211,215,221,226,232,236,241,246,251,256,261,266,271,276,280,286,291,297,301,306,310,316,321,325,331,336,341,346,351,356,360,366,371,376,381,386,391,396,401,405,411,416,421,426,431,436,440,446,451,457,461,466,472,476,481,485,491,496,501,506,511,516,520,526,531,537,541,546,552,556,561,565,571,576,580,586,591,596,601,605,611,616,620,626,631,637,641,646,651,656,661,666,671,675,681,686,691,696,701,706,711,716,721,725,731,736,740,746,751,756,761,765,771,776,780,786,790,796,801,805,811,816,820,826,831,836,841","168","easy","","","","","",""
"","mousetracking","87","59858","0.0-4.0-3.10","87","","","","","<div style=""font-size:60px;"">+</div>","","","rt_catch","FIX",",521,521,521,521,521,521,521,521,521,521,521,521,521,521,521,521,521",",295,295,295,295,295,295,295,295,295,295,295,295,295,295,295,295,295","0,5,11,16,20,26,30,36,41,46,51,56,61,66,71,75,81,85","17","easy","","","","","",""
"","mousetracking","88","60145","0.0-4.0-4.10","286","","","","","<div style=""font-size:60px;"">+</div>","","","rt_window","HIT",",521,521,521,521,521,521,521,521,521,521,521,521,521,521,521,521,521,521,521,521,521,521,521,521,521,521,521,521,521,521,521,521,521,521,521,521,521,521,521,521,521,521,521,521,521,521,521,521,521,521,521,521,521,521,521,521",",295,295,295,295,295,295,295,295,295,295,295,295,295,295,295,295,295,295,295,295,295,295,295,295,295,295,295,295,295,295,295,295,295,295,295,295,295,295,295,295,295,295,295,295,295,295,295,295,295,295,295,295,295,295,295,295","0,6,10,16,21,26,30,36,41,46,51,55,61,66,71,76,81,86,90,96,101,106,110,116,121,126,131,136,141,147,151,156,161,166,171,175,181,186,190,196,201,206,211,216,221,226,231,235,241,246,250,256,261,266,270,276,281","56","easy","","","","","",""
"","mousetracking","89","60387","0.0-4.0-5.10","240","","","","","<div style=""font-size:60px;"">+</div>","","","decision","ACQUIRE_TARG",",,,,588,588,588,588,588,588,588,588,588,588,588,588,588,588,588,588,588,588,588,588,588,588,588,588,588,588,588,588,588,588,588,588,588,588,588,588,588,588,588,588,588,588,588,683,683",",,,,359,359,359,359,359,359,359,359,359,359,359,359,359,359,359,359,359,359,359,359,359,359,359,359,359,359,359,359,359,359,359,359,359,359,359,359,359,359,359,359,359,359,359,470,470","0,6,10,15,21,26,30,36,41,45,51,56,60,66,71,75,81,85,91,96,101,105,111,116,120,126,130,135,141,146,151,156,161,165,170,176,181,185,191,196,201,205,210,215,220,226,231,236,240","48","easy","","","","","",""
"","mousetracking","90","60648","0.0-4.0-6.10","260","","","","","<div style=""font-size:60px;"">+</div>","","","targer_hold","SUCCESS",",,684,684,684,684,684,684,684,684,684,684,684,684,684,684,684,684,684,684,684,684,684,684,684,684,684,684,684,684,684,684,684,684,684,684,684,684,684,684,684,684,684,684,684,684,684,684,684,684,684,684",",,471,471,471,471,471,471,471,471,471,471,471,471,471,471,471,471,471,471,471,471,471,471,471,471,471,471,471,471,471,471,471,471,471,471,471,471,471,471,471,471,471,471,471,471,471,471,471,471,471,471","0,6,10,16,21,26,31,36,41,46,51,56,61,66,71,76,80,86,91,96,100,106,111,115,121,125,131,136,141,146,151,156,161,166,172,176,181,187,191,196,200,206,211,215,221,226,231,236,241,246,251,256","51","","20","","","","",""
"","html-keyboard-response","91","61653","0.0-4.0-7.10","null","","","","","<p style=color:green;>SUCCESS! + 20 points</p> SCORE: 260, Trial number: 8","null","","feedback","","","","","","easy","20","230","50","273.22330470336317,456.77669529663683","SUCCESS!",""
"","mousetracking","92","61962","0.0-4.0-0.11","308","","","","","<div style=""font-size:60px;"">+</div>","","","ITI","FIX",",528,528,528,528,528,528,528,528,528,528,528,528,528,528,528,528,528,528,528,528,528,528,528,528,528,528,528,528,528,528,528,528,528,528,528,528,528,528,528,528,528,528,528,528,528,528,528,528,528,528,528,528,528,528,528,528,528,528,528,528,528",",289,289,289,289,289,289,289,289,289,289,289,289,289,289,289,289,289,289,289,289,289,289,289,289,289,289,289,289,289,289,289,289,289,289,289,289,289,289,289,289,289,289,289,289,289,289,289,289,289,289,289,289,289,289,289,289,289,289,289,289,289","0,6,11,15,21,25,30,36,40,46,51,55,60,66,71,75,80,86,90,96,100,105,111,116,120,125,130,136,141,145,150,155,161,165,171,175,180,186,191,195,200,205,211,216,220,226,231,235,241,245,250,256,260,266,271,275,280,286,290,295,301,305","61","easy","","","","","",""
"","mousetracking","93","62470","0.0-4.0-1.11","506","","","","","<div style=""font-size:60px;"">+</div>","","","fixation","FIX",",532,532,532,532,532,532,532,532,532,532,532,532,532,532,532,532,532,532,532,532,532,532,532,532,532,532,532,532,532,532,532,532,532,532,532,532,532,532,532,532,532,532,532,532,532,532,532,532,532,532,532,532,532,532,532,532,532,532,532,532,532,532,532,532,532,532,532,532,532,532,532,532,532,532,532,532,532,532,532,532,532,532,532,532,532,532,532,532,532,532,532,532,532,532,532,532,532,532,532,532,532",",294,294,294,294,294,294,294,294,294,294,294,294,294,294,294,294,294,294,294,294,294,294,294,294,294,294,294,294,294,294,294,294,294,294,294,294,294,294,294,294,294,294,294,294,294,294,294,294,294,294,294,294,294,294,294,294,294,294,294,294,294,294,294,294,294,294,294,294,294,294,294,294,294,294,294,294,294,294,294,294,294,294,294,294,294,294,294,294,294,294,294,294,294,294,294,294,294,294,294,294,294","0,5,11,16,21,25,31,35,41,45,50,56,60,66,71,75,81,86,90,96,101,105,111,116,120,126,130,135,141,145,150,156,160,165,171,176,180,186,190,195,201,205,210,216,220,226,231,235,241,246,250,256,260,266,271,275,281,286,290,296,301,305,310,316,321,325,331,336,341,345,351,356,360,366,371,375,381,386,390,396,401,406,411,416,420,426,431,435,441,446,450,456,460,466,471,475,481,486,490,496,501,506","101","easy","","","","","",""
"","mousetracking","94","63071","0.0-4.0-2.11","599","","","","","<div style=""font-size:60px;"">+</div>","","","delay","FIX",",532,532,532,532,532,532,532,532,532,532,532,532,532,532,532,532,532,532,532,532,532,532,532,532,532,532,532,532,532,532,532,532,532,532,532,532,532,532,532,532,532,532,532,532,532,532,532,532,532,532,532,532,532,532,532,532,532,532,532,532,532,532,532,532,532,532,532,532,532,532,532,532,532,532,532,532,532,532,532,532,532,532,532,532,532,532,532,532,532,532,532,532,532,532,532,532,532,532,532,532,532,532,532,532,532,532,532,532,532,532,532,532,532,532,532,532,532,532,532",",294,294,294,294,294,294,294,294,294,294,294,294,294,294,294,294,294,294,294,294,294,294,294,294,294,294,294,294,294,294,294,294,294,294,294,294,294,294,294,294,294,294,294,294,294,294,294,294,294,294,294,294,294,294,294,294,294,294,294,294,294,294,294,294,294,294,294,294,294,294,294,294,294,294,294,294,294,294,294,294,294,294,294,294,294,294,294,294,294,294,294,294,294,294,294,294,294,294,294,294,294,294,294,294,294,294,294,294,294,294,294,294,294,294,294,294,294,294,294","0,5,11,16,20,26,30,35,41,45,51,56,60,66,71,75,81,86,91,96,100,106,111,115,120,126,131,136,141,146,151,155,161,166,171,176,180,186,191,195,201,205,211,216,220,226,231,235,241,245,251,256,260,266,271,275,281,286,291,296,300,306,311,315,321,325,331,336,341,346,351,355,360,366,372,375,381,386,391,395,400,406,411,416,421,426,431,436,441,446,451,456,461,466,471,475,480,486,491,496,501,505,511,516,520,526,530,535,541,545,551,556,560,566,570,576,581,585,591,596","119","easy","","","","","",""
"","mousetracking","95","63158","0.0-4.0-3.11","86","","","","","<div style=""font-size:60px;"">+</div>","","","rt_catch","FIX",",532,532,532,532,532,532,532,532,532,532,532,532,532,532,532,532,532",",294,294,294,294,294,294,294,294,294,294,294,294,294,294,294,294,294","0,5,10,15,21,26,31,35,40,45,50,55,60,65,70,75,80,86","17","easy","","","","","",""
"","mousetracking","96","63462","0.0-4.0-4.11","302","","","","","<div style=""font-size:60px;"">+</div>","","","rt_window","HIT",",532,532,532,532,532,532,532,532,532,532,532,532,532,532,532,532,532,532,532,532,532,532,532,532,532,532,532,532,532,532,532,532,532,532,532,532,532,532,532,532,532,532,532,532,532,532,532,532,532,532,532,532,532,532,532,532,532,532,532,532",",294,294,294,294,294,294,294,294,294,294,294,294,294,294,294,294,294,294,294,294,294,294,294,294,294,294,294,294,294,294,294,294,294,294,294,294,294,294,294,294,294,294,294,294,294,294,294,294,294,294,294,294,294,294,294,294,294,294,294,294","1,6,12,16,21,26,32,36,41,46,51,56,61,66,72,76,81,87,91,96,102,106,112,116,121,127,131,136,141,146,151,156,161,166,172,176,181,187,191,196,202,206,212,216,221,227,231,236,241,246,252,256,261,266,272,276,281,286,292,296,301","60","easy","","","","","",""
"","mousetracking","97","63670","0.0-4.0-5.11","208","","","","","<div style=""font-size:60px;"">+</div>","","","decision","ACQUIRE_TARG",",,,575,575,575,575,575,575,575,575,575,575,575,575,575,575,575,575,575,575,575,575,575,575,575,575,575,575,575,575,575,575,575,575,575,575,575,575,575,693,693",",,,335,335,335,335,335,335,335,335,335,335,335,335,335,335,335,335,335,335,335,335,335,335,335,335,335,335,335,335,335,335,335,335,335,335,335,335,335,463,463","0,6,10,16,21,26,30,36,40,46,51,56,60,66,71,75,81,86,91,96,101,106,110,115,121,126,131,136,141,146,150,156,161,166,171,175,181,186,191,196,200,206","41","easy","","","","","",""
"","mousetracking","98","63934","0.0-4.0-6.11","262","","","","","<div style=""font-size:60px;"">+</div>","","","targer_hold","SUCCESS",",,696,696,696,696,696,696,696,696,696,696,696,696,696,696,696,696,696,696,696,696,696,696,696,696,696,696,696,696,696,696,696,696,696,696,696,696,696,696,696,696,696,696,696,696,696,696,696,696,696,696,696",",,467,467,467,467,467,467,467,467,467,467,467,467,467,467,467,467,467,467,467,467,467,467,467,467,467,467,467,467,467,467,467,467,467,467,467,467,467,467,467,467,467,467,467,467,467,467,467,467,467,467,467","0,6,10,15,21,25,31,35,40,45,51,55,60,65,71,75,80,85,91,95,100,105,110,115,120,125,131,135,140,146,150,155,161,165,170,175,180,185,191,195,200,206,211,215,220,225,230,236,240,245,251,255,260","52","","50","","","","",""
"","html-keyboard-response","99","64939","0.0-4.0-7.11","null","","","","","<p style=color:green;>SUCCESS! + 50 points</p> SCORE: 310, Trial number: 9","null","","feedback","","","","","","easy","50","230","50","273.22330470336317,456.77669529663683","SUCCESS!",""
"","mousetracking","100","65249","0.0-4.0-0.12","308","","","","","<div style=""font-size:60px;"">+</div>","","","ITI","FIX",",524,524,524,524,524,524,524,524,524,524,524,524,524,524,524,524,524,524,524,524,524,524,524,524,524,524,524,524,524,524,524,524,524,524,524,524,524,524,524,524,524,524,524,524,524,524,524,524,524,524,524,524,524,524,524,524,524,524,524,524,524",",294,294,294,294,294,294,294,294,294,294,294,294,294,294,294,294,294,294,294,294,294,294,294,294,294,294,294,294,294,294,294,294,294,294,294,294,294,294,294,294,294,294,294,294,294,294,294,294,294,294,294,294,294,294,294,294,294,294,294,294,294","0,5,10,16,20,25,31,35,40,46,50,56,61,65,71,76,80,86,90,95,101,106,110,116,121,125,130,136,140,146,151,155,161,165,170,176,180,185,191,195,200,206,210,215,221,225,230,236,241,245,250,256,260,265,271,275,281,285,290,296,300,305","61","easy","","","","","",""
"","mousetracking","101","65757","0.0-4.0-1.12","507","","","","","<div style=""font-size:60px;"">+</div>","","","fixation","FIX",",524,524,524,524,524,524,524,524,524,524,524,524,524,524,524,524,524,524,524,524,524,524,524,524,524,524,524,524,524,524,524,524,524,524,524,524,524,524,524,524,524,524,524,524,524,524,524,524,524,524,524,524,524,524,524,524,524,524,524,524,524,524,524,524,524,524,524,524,524,524,524,524,524,524,524,524,524,524,524,524,524,524,524,524,524,524,524,524,524,524,524,524,524,524,524,524,524,524,524,524,524",",294,294,294,294,294,294,294,294,294,294,294,294,294,294,294,294,294,294,294,294,294,294,294,294,294,294,294,294,294,294,294,294,294,294,294,294,294,294,294,294,294,294,294,294,294,294,294,294,294,294,294,294,294,294,294,294,294,294,294,294,294,294,294,294,294,294,294,294,294,294,294,294,294,294,294,294,294,294,294,294,294,294,294,294,294,294,294,294,294,294,294,294,294,294,294,294,294,294,294,294,294","0,5,11,16,20,26,30,35,41,45,51,56,60,66,70,75,81,85,91,96,100,106,111,115,121,126,130,136,140,146,150,155,161,165,171,176,180,186,190,195,201,205,211,216,220,226,230,235,241,245,251,256,260,266,270,275,281,285,291,296,300,306,311,315,321,325,331,336,340,346,351,355,360,365,371,376,380,386,391,395,401,405,411,416,420,425,431,435,440,446,450,455,461,465,471,475,480,486,490,495,501,505","101","easy","","","","","",""
"","mousetracking","102","66481","0.0-4.0-2.12","723","","","","","<div style=""font-size:60px;"">+</div>","","","delay","FIX",",524,524,524,524,524,524,524,524,524,524,524,524,524,524,524,524,524,524,524,524,524,524,524,524,524,524,524,524,524,524,524,524,524,524,524,524,524,524,524,524,524,524,524,524,524,524,524,524,524,524,524,524,524,524,524,524,524,524,524,524,524,524,524,524,524,524,524,524,524,524,524,524,524,524,524,524,524,524,524,524,524,524,524,524,524,524,524,524,524,524,524,524,524,524,524,524,524,524,524,524,524,524,524,524,524,524,524,524,524,524,524,524,524,524,524,524,524,524,524,524,524,524,524,524,524,524,524,524,524,524,524,524,524,524,524,524,524,524,524,524,524,524,524,524",",294,294,294,294,294,294,294,294,294,294,294,294,294,294,294,294,294,294,294,294,294,294,294,294,294,294,294,294,294,294,294,294,294,294,294,294,294,294,294,294,294,294,294,294,294,294,294,294,294,294,294,294,294,294,294,294,294,294,294,294,294,294,294,294,294,294,294,294,294,294,294,294,294,294,294,294,294,294,294,294,294,294,294,294,294,294,294,294,294,294,294,294,294,294,294,294,294,294,294,294,294,294,294,294,294,294,294,294,294,294,294,294,294,294,294,294,294,294,294,294,294,294,294,294,294,294,294,294,294,294,294,294,294,294,294,294,294,294,294,294,294,294,294,294","0,5,11,16,21,26,31,36,41,46,50,55,61,65,70,76,81,86,91,96,101,106,111,115,121,126,130,136,140,146,151,155,161,165,171,176,180,186,191,195,201,206,210,216,221,226,231,236,241,246,251,255,261,266,270,276,281,285,291,296,300,306,311,315,321,326,330,336,341,345,350,356,360,366,371,375,381,386,390,396,400,406,411,415,421,426,430,436,441,445,451,456,460,466,471,475,481,486,490,496,501,506,511,516,521,526,530,535,541,545,550,556,561,566,571,575,581,586,590,596,601,606,611,616,620,626,630,635,641,645,650,656,660,666,671,675,681,686,690,696,701,706,711,716,720","144","easy","","","","","",""
"","mousetracking","103","66570","0.0-4.0-3.12","87","","","","","<div style=""font-size:60px;"">+</div>","","","rt_catch","FIX",",524,524,524,524,524,524,524,524,524,524,524,524,524,524,524,524,524",",294,294,294,294,294,294,294,294,294,294,294,294,294,294,294,294,294","0,6,11,16,20,26,31,35,41,45,51,56,60,66,72,76,81,86","17","easy","","","","","",""
"","mousetracking","104","66912","0.0-4.0-4.12","341","","","","","<div style=""font-size:60px;"">+</div>","","","rt_window","HIT",",524,524,524,524,524,524,524,524,524,524,524,524,524,524,524,524,524,524,524,524,524,524,524,524,524,524,524,524,524,524,524,524,524,524,524,524,524,524,524,524,524,524,524,524,524,524,524,524,524,524,524,524,524,524,524,524,524,524,524,524,524,524,524,524,524,524,524",",294,294,294,294,294,294,294,294,294,294,294,294,294,294,294,294,294,294,294,294,294,294,294,294,294,294,294,294,294,294,294,294,294,294,294,294,294,294,294,294,294,294,294,294,294,294,294,294,294,294,294,294,294,294,294,294,294,294,294,294,294,294,294,294,294,294,294","0,5,11,16,20,26,31,35,41,45,51,56,60,66,71,75,81,85,91,96,100,106,111,115,121,125,131,136,140,146,151,155,161,165,171,176,180,186,191,195,201,206,211,216,220,226,231,235,241,245,251,256,260,266,271,275,281,285,291,296,300,306,311,316,320,325,330,335","67","easy","","","","","",""
"","mousetracking","105","67104","0.0-4.0-5.12","191","","","","","<div style=""font-size:60px;"">+</div>","","","decision","ACQUIRE_TARG",",,,,590,590,590,590,590,590,590,590,590,590,590,590,590,590,590,590,590,590,590,590,590,590,590,590,590,590,590,590,590,590,590,590,590,692,692",",,,,355,355,355,355,355,355,355,355,355,355,355,355,355,355,355,355,355,355,355,355,355,355,355,355,355,355,355,355,355,355,355,355,355,462,462","0,5,11,15,21,25,31,36,41,45,51,56,60,65,70,76,80,85,90,96,100,105,111,115,121,125,131,136,140,146,151,156,161,165,171,176,181,185,191","38","easy","","","","","",""
"","mousetracking","106","67365","0.0-4.0-6.12","260","","","","","<div style=""font-size:60px;"">+</div>","","","targer_hold","SUCCESS",",,696,696,696,696,696,696,696,696,696,696,696,696,696,696,696,696,696,696,696,696,696,696,696,696,696,696,696,696,696,696,696,696,696,696,696,696,696,696,696,696,696,696,696,696,696,696,696,696,696,696",",,466,466,466,466,466,466,466,466,466,466,466,466,466,466,466,466,466,466,466,466,466,466,466,466,466,466,466,466,466,466,466,466,466,466,466,466,466,466,466,466,466,466,466,466,466,466,466,466,466,466","0,5,10,16,21,26,31,35,40,46,51,55,61,65,71,76,80,86,91,96,101,106,111,116,120,126,131,135,141,145,151,156,160,166,170,176,181,185,191,196,200,206,211,215,221,225,231,236,240,246,251,256","51","","10","","","","",""
"","html-keyboard-response","107","68369","0.0-4.0-7.12","null","","","","","<p style=color:green;>SUCCESS! + 10 points</p> SCORE: 320, Trial number: 10","null","","feedback","","","","","","easy","10","230","50","273.22330470336317,456.77669529663683","SUCCESS!",""
"","mousetracking","108","68674","0.0-4.0-0.13","304","","","","","<div style=""font-size:60px;"">+</div>","","","ITI","FIX",",526,526,526,526,526,526,526,526,526,526,526,526,526,526,526,526,526,526,526,526,526,526,526,526,526,526,526,526,526,526,526,526,526,526,526,526,526,526,526,526,526,526,526,526,526,526,526,526,526,526,526,526,526,526,526,526,526,526,526,526",",288,288,288,288,288,288,288,288,288,288,288,288,288,288,288,288,288,288,288,288,288,288,288,288,288,288,288,288,288,288,288,288,288,288,288,288,288,288,288,288,288,288,288,288,288,288,288,288,288,288,288,288,288,288,288,288,288,288,288,288","0,6,11,16,21,26,32,36,41,47,51,56,61,66,71,76,81,87,91,96,101,106,111,115,121,125,131,136,141,146,152,156,161,166,171,176,181,186,191,195,201,207,211,216,221,226,232,236,241,247,251,256,261,266,272,276,281,287,291,296,301","60","easy","","","","","",""
"","mousetracking","109","69181","0.0-4.0-1.13","505","","","","","<div style=""font-size:60px;"">+</div>","","","fixation","FIX",",526,526,526,526,526,526,526,526,526,526,526,526,526,526,526,526,526,526,526,526,526,526,526,526,526,526,526,526,526,526,526,526,526,526,526,526,526,526,526,526,526,526,526,526,526,526,526,526,526,526,526,526,526,526,526,526,526,526,526,526,526,526,526,526,526,526,526,526,526,526,526,526,526,526,526,526,526,526,526,526,526,526,526,526,526,526,526,526,526,526,526,526,526,526,526,526,526,526,526,526,526",",290,290,290,290,290,290,290,290,290,290,290,290,290,290,290,290,290,290,290,290,290,290,290,290,290,290,290,290,290,290,290,290,290,290,290,290,290,290,290,290,290,290,290,290,290,290,290,290,290,290,290,290,290,290,290,290,290,290,290,290,290,290,290,290,290,290,290,290,290,290,290,290,290,290,290,290,290,290,290,290,290,290,290,290,290,290,290,290,290,290,290,290,290,290,290,290,290,290,290,290,290","0,5,10,16,20,25,30,36,40,45,50,55,60,65,70,76,80,85,90,95,100,106,110,115,120,125,130,135,141,145,150,155,160,166,170,175,180,185,190,196,200,205,210,215,220,226,230,235,240,245,250,256,260,265,270,275,280,286,290,295,300,305,310,316,320,325,330,336,340,345,351,355,360,365,370,376,380,385,391,395,400,406,410,415,420,425,430,436,441,445,450,455,460,465,471,475,480,486,490,495,500,505","101","easy","","","","","",""
