"success","trial_type","trial_index","time_elapsed","internal_node_id","rt","responses","partNum","view_history","time","stimulus","key_press","trial_status","epoch","choice","x-position","y-position","mice-times","nRecordings","block","reward","change_hue","target_size","location","outcome","response"
"true","fullscreen","0","2054","0.0-0.0","","","","","","","","","","","","","","","","","","","","",""
"","survey-text","1","4147","0.0-1.0","2091","{""Q0"":""adi""}","""adi""","","","","","","","","","","","","","","","","","",""
"","instructions","2","7851","0.0-2.0","3703","","","[{""page_index"":0,""viewing_time"":802},{""page_index"":1,""viewing_time"":703},{""page_index"":2,""viewing_time"":919},{""page_index"":3,""viewing_time"":638},{""page_index"":4,""viewing_time"":640}]","Tue Oct 15 2024 20:24:33 GMT-0400 (Eastern Daylight Time)","","","","","","","","","","","","","","","",""
"","html-keyboard-response","3","9429","0.0-3.0-0.0","1576","","","","","EASY BLOCK <br> To Start/Continue, press y <br> To end the session, press n","89","continue_flag","","","","","","","","","","","","",""
"","mousetracking","4","10051","0.0-4.0-0.0","620","","","","","<div style=""font-size:60px;"">+</div>","","","ITI","FIX",",515,515,515,515,515,515,515,515,515,515,515,515,515,515,515,515,515,515,515,515,515,515,515,515,515,515,515,515,515,515,515,515,515,515,515,515,515,515,515,515,515,515,515,515,515,515,515,515,515,515,515,515,515,515,515,515,515,515,515,515,515,515,515,515,515,515,515,515,515,515,515,515,515,515,515,515,515,515,515,515,515,515,515,515,515,515,515,515,515,515,515,515,515,515,515,515,515,515,515,515,515,515,515,515,515,515,515,515,515,515,515,515,515,515,515,515,515,515,515,515,515,515,515",",345,345,345,345,345,345,345,345,345,345,345,345,345,345,345,345,345,345,345,345,345,345,345,345,345,345,345,345,345,345,345,345,345,345,345,345,345,345,345,345,345,345,345,345,345,345,345,345,345,345,345,345,345,345,345,345,345,345,345,345,345,345,345,320,320,320,320,320,320,320,320,320,320,320,320,320,320,320,320,320,320,320,320,320,320,320,320,320,320,320,320,320,320,320,320,320,320,320,320,320,320,320,320,320,320,320,320,320,320,320,320,320,320,320,320,320,320,320,320,320,320,320,320","0,7,11,17,21,27,31,37,41,47,52,56,62,66,72,77,81,87,91,97,101,107,112,116,122,126,132,136,142,147,151,157,161,167,172,176,182,186,192,196,202,206,212,216,222,227,231,237,241,246,251,257,261,267,272,276,282,286,292,296,301,306,312,316,321,327,331,336,341,346,351,356,361,367,371,376,382,387,391,396,401,406,412,416,421,426,432,436,441,446,451,456,461,466,472,476,481,487,491,497,502,506,512,516,521,527,531,536,541,546,552,556,561,566,571,576,581,586,591,596,602,606,612,617","123","easy","","","","","",""
"","mousetracking","5","10556","0.0-4.0-1.0","504","","","","","<div style=""font-size:60px;"">+</div>","","","fixation","FIX",",516,516,516,516,516,516,516,516,516,516,516,516,516,516,516,516,516,516,516,516,516,516,516,516,516,516,516,516,516,516,516,516,516,516,516,516,516,516,516,516,516,516,516,516,516,516,516,516,516,516,516,516,516,516,516,516,516,516,516,516,516,516,516,516,516,516,516,516,516,516,516,516,516,516,516,516,516,516,516,516,516,516,516,516,516,516,516,516,516,516,516,516,516,516,516,516,516,516,516,516",",311,311,311,311,311,311,311,311,311,311,311,311,311,311,311,311,311,311,311,311,311,311,311,311,311,311,311,311,311,311,311,311,311,311,311,311,311,311,311,311,311,311,311,311,311,311,311,311,311,311,311,311,311,311,311,311,311,311,311,311,311,311,311,311,311,311,311,311,311,311,311,311,311,311,311,311,311,311,311,311,311,311,311,311,311,311,311,311,311,311,311,311,311,311,311,311,311,311,311,311","0,5,11,16,20,26,31,35,41,45,51,56,60,66,71,75,81,86,91,96,100,106,111,115,121,126,131,136,140,146,151,155,161,165,171,176,180,186,191,195,201,205,211,215,221,226,232,236,241,245,251,256,260,266,271,275,281,286,291,296,301,306,311,316,321,325,331,336,340,346,350,356,361,366,371,375,381,386,392,396,401,406,411,416,420,426,431,435,441,445,451,456,460,466,471,475,481,485,491,496,500","100","easy","","","","","",""
"","mousetracking","6","12054","0.0-4.0-2.0","1495","","","","","<div style=""font-size:60px;"">+</div>","","","delay","FIX",",516,516,516,516,516,516,516,516,516,516,516,516,516,516,516,516,516,516,516,516,516,516,516,516,516,516,516,516,516,516,516,516,516,516,516,516,516,516,516,516,516,516,516,516,516,516,516,516,516,516,516,516,516,516,516,516,516,516,516,516,516,516,516,516,516,516,516,516,516,516,516,516,516,516,516,516,516,516,516,516,516,516,516,516,516,516,516,516,516,516,516,516,516,516,516,516,516,516,516,516,516,516,516,516,516,516,516,516,516,516,516,516,516,516,516,516,516,516,516,516,516,516,516,516,516,516,516,516,516,516,516,516,516,516,516,516,516,516,516,516,516,516,516,516,516,516,516,516,516,516,516,516,516,516,516,516,516,516,516,516,516,516,516,516,516,516,516,516,516,516,516,516,516,516,516,516,516,516,516,516,516,516,516,516,516,516,516,516,516,516,516,516,516,516,516,516,516,516,516,516,516,516,516,516,516,516,516,516,516,516,516,516,516,516,516,516,516,516,516,516,516,516,516,516,516,516,516,516,516,516,516,516,516,516,516,516,516,516,516,516,516,516,516,516,516,516,516,516,516,516,516,516,516,516,516,516,516,516,516,516,516,516,516,516,516,516,516,516,516,516,516,516,516,516,516,516,516,516,516,516,516,516,516,516,516,516,516,516,516,516,516,516,516,516,516,516,516,516",",311,311,311,311,311,311,311,311,311,311,311,311,311,311,311,311,311,311,311,311,311,311,311,311,311,311,311,311,311,311,311,311,311,311,311,311,311,311,311,311,311,311,311,311,311,311,311,311,311,311,311,311,311,311,311,311,311,311,311,311,311,311,311,311,311,311,311,311,311,311,311,311,311,311,311,311,311,311,311,311,311,311,311,311,311,311,311,311,311,311,311,311,311,311,311,311,311,311,311,311,311,311,311,311,311,311,311,311,311,311,311,311,311,311,311,311,311,311,311,311,311,311,311,311,311,311,311,311,311,311,311,311,311,311,311,311,311,311,311,311,311,311,311,311,311,311,311,311,311,311,311,311,311,311,311,311,311,311,311,311,311,311,311,311,311,311,311,311,311,311,311,311,311,311,311,311,311,311,311,311,311,311,311,311,311,311,311,311,311,311,311,311,311,311,311,311,311,311,311,311,311,311,311,311,311,311,311,311,311,311,311,311,311,311,311,311,311,311,311,311,311,311,311,311,311,311,311,311,311,311,311,311,311,311,311,311,311,311,311,311,311,311,311,311,311,311,311,311,311,311,311,311,311,311,311,311,311,311,311,311,311,311,311,311,311,311,311,311,311,311,311,311,311,311,311,311,311,311,311,311,311,311,311,311,311,311,311,311,311,311,311,311,311,311,311,311,311,311","0,6,10,16,21,26,31,35,41,46,50,56,61,65,71,76,80,86,91,95,101,105,111,116,120,126,130,135,141,146,151,155,161,166,171,176,180,186,191,196,200,206,211,215,221,225,231,236,241,246,250,256,261,266,271,275,281,285,291,296,300,306,310,316,321,326,331,335,341,346,351,356,360,366,371,375,381,386,391,396,400,406,411,415,421,426,431,436,440,446,451,455,461,466,471,476,480,486,491,495,501,506,511,516,521,526,531,535,541,546,551,555,561,565,571,576,580,586,591,595,601,605,611,616,620,626,631,635,641,646,651,656,660,666,671,675,681,686,691,696,700,706,711,715,721,726,731,736,741,746,751,755,761,766,771,776,780,786,791,795,801,806,811,816,820,826,830,836,841,846,851,855,861,866,871,876,880,886,891,895,901,905,911,916,921,926,930,936,941,946,951,955,961,966,971,976,980,986,991,995,1001,1006,1011,1016,1020,1026,1031,1035,1041,1046,1051,1056,1061,1066,1071,1075,1081,1086,1090,1096,1101,1106,1111,1116,1120,1126,1130,1136,1141,1146,1151,1155,1161,1166,1170,1176,1181,1186,1191,1195,1201,1206,1210,1216,1221,1225,1231,1236,1240,1246,1250,1255,1261,1265,1271,1276,1280,1286,1290,1295,1301,1305,1311,1316,1321,1326,1331,1336,1341,1346,1351,1355,1361,1366,1370,1375,1381,1385,1391,1396,1401,1406,1410,1416,1421,1425,1431,1436,1440,1446,1451,1455,1461,1466,1471,1476,1480,1486,1491","298","easy","","","","","",""
"","mousetracking","7","12140","0.0-4.0-3.0","84","","","","","<div style=""font-size:60px;"">+</div>","","","rt_catch","FIX",",516,516,516,516,516,516,516,516,516,516,516,516,516,516,516,516",",311,311,311,311,311,311,311,311,311,311,311,311,311,311,311,311","0,6,12,16,21,26,31,36,40,46,51,55,61,66,71,76,80","16","easy","","","","","",""
"","mousetracking","8","12516","0.0-4.0-4.0","375","","","","","<div style=""font-size:60px;"">+</div>","","","rt_window","MISSED",",516,516,516,516,516,516,516,516,516,516,516,516,516,516,516,516,516,516,516,516,516,516,516,516,516,516,516,516,516,516,516,516,516,516,516,516,516,516,516,516,516,516,516,516,516,516,516,516,516,516,516,516,516,516,516,516,516,516,516,516,516,516,516,516,516,516,516,516,516,516,516,516,516,516",",311,311,311,311,311,311,311,311,311,311,311,311,311,311,311,311,311,311,311,311,311,311,311,311,311,311,311,311,311,311,311,311,311,311,311,311,311,311,311,311,311,311,311,311,311,311,311,311,311,311,311,311,311,311,311,311,311,311,311,311,311,311,311,311,311,311,311,311,311,311,311,311,311,311","0,5,11,15,20,26,30,35,40,45,51,55,60,66,70,75,80,85,91,95,100,106,110,115,121,125,131,135,140,146,150,155,160,166,170,175,181,185,190,195,201,205,211,216,220,226,230,235,241,245,251,255,260,266,270,275,281,285,291,296,300,306,310,315,320,325,331,336,340,345,351,355,360,366,370","74","easy","","","","","",""
"","mousetracking","9","12822","0.0-4.0-5.0","305","","","","","<div style=""font-size:60px;"">+</div>","","","decision","ACQUIRE_TARG",",,,552,552,552,552,552,552,552,552,552,552,552,552,552,552,552,552,552,552,552,552,552,552,552,552,552,552,552,552,552,552,552,552,552,552,552,552,552,552,552,552,552,552,552,552,552,552,552,552,552,552,552,552,552,552,552,552,552,724",",,,332,332,332,332,332,332,332,332,332,332,332,332,332,332,332,332,332,332,332,332,332,332,332,332,332,332,332,332,332,332,332,332,332,332,332,332,332,332,332,332,332,332,332,332,332,332,332,332,332,332,332,332,332,332,332,332,332,491","0,6,11,16,21,26,31,35,41,45,51,56,60,66,71,75,81,86,91,95,101,105,111,115,121,125,131,136,140,146,151,156,160,166,172,176,181,186,191,195,201,206,211,216,220,226,231,235,241,245,251,255,261,266,271,275,281,286,292,296,300","60","easy","","","","","",""
"","mousetracking","10","13084","0.0-4.0-6.0","261","","","","","<div style=""font-size:60px;"">+</div>","","","targer_hold","SUCCESS",",,724,724,724,724,724,724,724,724,724,724,724,724,724,724,724,724,724,724,724,724,724,724,724,724,724,724,724,724,724,724,724,724,724,724,724,724,724,724,724,724,724,724,724,724,724,724,724,724,724,724",",,491,491,491,491,491,491,491,491,491,491,491,491,491,491,491,491,491,491,491,491,491,491,491,491,491,491,491,491,491,491,491,491,491,491,491,491,491,491,491,491,491,491,491,491,491,491,491,491,491,491","0,6,10,16,21,25,31,36,41,46,51,56,60,66,71,76,80,86,91,96,101,105,111,116,120,126,131,136,141,146,151,156,161,165,171,176,180,186,191,196,201,205,211,216,220,226,231,235,241,246,250,256","51","","10","","","","",""
"","html-keyboard-response","11","14089","0.0-4.0-7.0","null","","","","","<p style=color:red;>TOO SLOW - 20 points</p> SCORE: 0, Trial number: 0","null","","feedback","","","","","","easy","10","230","100","273.22330470336317,456.77669529663683","MISSED",""
"","mousetracking","12","14554","0.0-4.0-0.1","464","","","","","<div style=""font-size:60px;"">+</div>","","","ITI","FIX",",560,560,560,560,560,560,560,560,560,560,560,560,560,560,560,560,560,560,560,560,560,560,560,560,560,560,560,560,560,560,560,549,549,549,549,549,549,549,549,549,549,549,549,549,549,549,549,549,549,549,549,549,549,549,549,549,549,549,549,549,549,549,549,549,549,549,549,549,549,549,549,549,549,549,549,549,549,549,549,549,549,549,549,549,549,549,549,549,549,549,549,549",",302,302,302,302,302,302,302,302,302,302,302,302,302,302,302,302,302,302,302,302,302,302,302,302,302,302,302,302,302,302,302,299,299,299,299,299,299,299,299,299,299,299,299,299,299,299,299,299,299,299,299,299,299,299,299,299,299,299,299,299,299,299,299,299,299,299,299,299,299,299,299,299,299,299,299,299,299,299,299,299,299,299,299,299,299,299,299,299,299,299,299,299","0,6,10,16,21,27,31,36,41,46,50,56,61,66,71,76,81,86,91,96,101,107,111,117,121,126,131,136,141,146,151,157,161,166,171,176,181,186,191,196,202,206,211,216,221,227,231,236,242,246,251,256,261,266,270,276,281,287,291,296,301,306,311,316,321,326,331,335,341,346,351,356,361,366,371,376,381,386,391,396,401,407,411,415,421,426,431,437,441,446,451,457,462","92","easy","","","","","",""
"","mousetracking","13","15067","0.0-4.0-1.1","512","","","","","<div style=""font-size:60px;"">+</div>","","","fixation","FIX",",,545,545,545,545,545,545,545,545,545,545,545,545,545,545,545,545,545,545,545,545,545,545,545,545,545,545,545,545,545,545,545,545,545,545,545,545,545,545,545,545,545,545,545,545,545,545,545,545,545,545,545,545,545,545,545,545,545,545,545,545,545,545,545,545,545,545,545,545,545,545,545,545,545,545,545,545,545,545,545,545,545,545,545,545,545,545,545,545,545,545,545,545,545,545,545,545,545,545,545,545,545",",,298,298,298,298,298,298,298,298,298,298,298,298,298,298,298,298,298,298,298,298,298,298,298,298,298,298,298,298,298,298,298,298,298,298,298,298,298,298,298,298,298,298,298,298,298,298,298,298,298,298,298,298,298,298,298,298,298,298,298,298,298,298,298,298,298,298,298,298,298,298,298,298,298,298,298,298,298,298,298,298,298,298,298,298,298,298,298,298,298,298,298,298,298,298,298,298,298,298,298,298,298","0,6,11,16,21,26,32,35,41,46,52,56,61,67,71,76,80,86,91,96,101,107,111,116,121,126,131,136,141,146,152,156,161,166,171,176,181,186,191,196,202,206,211,216,221,226,232,236,241,246,251,256,260,266,271,276,281,286,291,295,301,306,311,316,321,326,331,336,341,346,351,355,361,366,371,376,381,386,392,396,401,406,411,415,421,426,431,436,441,446,451,456,462,466,471,476,481,486,491,495,501,506,512","102","easy","","","","","",""
"","mousetracking","14","16183","0.0-4.0-2.1","1114","","","","","<div style=""font-size:60px;"">+</div>","","","delay","FIX",",545,545,545,545,545,545,545,545,545,545,545,545,545,545,545,545,545,545,545,545,545,545,545,545,545,545,545,545,545,545,545,545,545,545,545,545,545,545,545,545,545,545,545,545,545,545,545,545,545,545,545,545,545,545,545,545,545,545,545,545,545,545,545,545,545,545,545,545,545,545,545,545,545,545,545,545,545,545,545,545,545,545,545,545,545,545,545,545,545,545,545,545,545,545,545,545,545,545,545,545,545,545,545,545,545,545,545,545,545,545,545,545,545,545,545,545,545,545,545,545,545,545,545,545,545,545,545,545,545,545,545,545,545,545,545,545,545,545,545,545,545,545,545,545,545,545,545,545,545,545,545,545,545,545,545,545,545,545,545,545,545,545,545,545,545,545,545,545,545,545,545,545,545,545,545,545,545,545,545,545,545,545,545,545,545,545,545,545,545,545,545,545,545,545,545,545,545,545,545,545,545,545,545,545,545,545,545,545,545,545,545,545,545,545,545,545,545,545,545,545,545,545",",298,298,298,298,298,298,298,298,298,298,298,298,298,298,298,298,298,298,298,298,298,298,298,298,298,298,298,298,298,298,298,298,298,298,298,298,298,298,298,298,298,298,298,298,298,298,298,298,298,298,298,298,298,298,298,298,298,298,298,298,298,298,298,298,298,298,298,298,298,298,298,298,298,298,298,298,298,298,298,298,298,298,298,298,298,298,298,298,298,298,298,298,298,298,298,298,298,298,298,298,298,298,298,298,298,298,298,298,298,298,298,298,298,298,298,298,298,298,298,298,298,298,298,298,298,298,298,298,298,298,298,298,298,298,298,298,298,298,298,298,298,298,298,298,298,298,298,298,298,298,298,298,298,298,298,298,298,298,298,298,298,298,298,298,298,298,298,298,298,298,298,298,298,298,298,298,298,298,298,298,298,298,298,298,298,298,298,298,298,298,298,298,298,298,298,298,298,298,298,298,298,298,298,298,298,298,298,298,298,298,298,298,298,298,298,298,298,298,298,298,298,298","0,6,11,15,21,26,30,36,41,45,51,55,60,66,70,76,81,86,90,96,101,105,111,116,120,126,130,135,141,145,150,156,160,166,171,175,181,186,190,196,200,206,210,215,221,225,231,236,240,246,251,255,261,265,270,276,280,286,290,295,301,305,310,316,320,326,330,336,341,345,351,356,360,366,370,376,381,385,391,396,400,406,410,416,421,425,431,435,440,446,450,456,461,465,471,476,480,486,490,495,501,505,510,516,520,526,531,535,540,546,550,555,561,565,570,576,580,586,591,595,601,605,610,616,620,626,631,635,641,646,650,656,661,665,671,676,680,686,690,695,701,705,711,715,720,726,730,735,741,745,750,756,760,766,771,775,781,785,790,796,800,806,811,815,821,826,830,836,840,846,851,855,861,866,870,875,881,886,890,896,900,905,911,916,920,926,930,935,941,945,950,956,960,966,971,975,981,986,990,996,1001,1005,1011,1016,1020,1026,1030,1036,1041,1045,1051,1056,1060,1066,1071,1075,1081,1085,1090,1096,1100,1106,1111","222","easy","","","","","",""
"","mousetracking","15","16270","0.0-4.0-3.1","86","","","","","<div style=""font-size:60px;"">+</div>","","","rt_catch","FIX",",545,545,545,545,545,545,545,545,545,545,545,545,545,545,545,545,545",",298,298,298,298,298,298,298,298,298,298,298,298,298,298,298,298,298","0,5,11,16,20,26,31,35,41,45,50,56,60,66,71,75,81,86","17","easy","","","","","",""
"","mousetracking","16","16549","0.0-4.0-4.1","278","","","","","<div style=""font-size:60px;"">+</div>","","","rt_window","HIT",",545,545,545,545,545,545,545,545,545,545,545,545,545,545,545,545,545,545,545,545,545,545,545,545,545,545,545,545,545,545,545,545,545,545,545,545,545,545,545,545,545,545,545,545,545,545,545,545,545,545,545,545,545,545,545",",298,298,298,298,298,298,298,298,298,298,298,298,298,298,298,298,298,298,298,298,298,298,298,298,298,298,298,298,298,298,298,298,298,298,298,298,298,298,298,298,298,298,298,298,298,298,298,298,298,298,298,298,298,298,298","0,6,11,16,21,27,31,36,40,46,52,56,61,67,71,75,81,86,91,96,100,106,111,115,121,126,131,136,140,146,151,155,161,166,171,176,180,186,191,195,201,206,211,216,221,226,231,235,241,246,251,256,260,266,270,276","55","easy","","","","","",""
"","mousetracking","17","16757","0.0-4.0-5.1","207","","","","","<div style=""font-size:60px;"">+</div>","","","decision","ACQUIRE_TARG",",,,558,558,558,558,558,558,558,558,558,558,558,558,558,558,558,558,558,558,558,558,558,558,558,558,558,558,558,558,558,558,558,558,558,558,558,558,558,651,651",",,,281,281,281,281,281,281,281,281,281,281,281,281,281,281,281,281,281,281,281,281,281,281,281,281,281,281,281,281,281,281,281,281,281,281,281,281,281,202,202","0,5,10,16,20,25,30,35,40,46,50,55,60,66,70,75,80,86,90,95,100,105,110,116,121,125,130,136,140,146,150,155,160,165,171,175,180,185,190,195,200,205","41","easy","","","","","",""
"","mousetracking","18","17016","0.0-4.0-6.1","258","","","","","<div style=""font-size:60px;"">+</div>","","","targer_hold","SUCCESS",",652,652,652,652,652,652,652,652,652,652,652,652,652,652,652,652,652,652,652,652,652,652,652,652,652,652,652,652,652,652,652,652,652,652,652,652,652,652,652,652,652,652,652,652,652,652,652,652,652,652,652",",200,200,200,200,200,200,200,200,200,200,200,200,200,200,200,200,200,200,200,200,200,200,200,200,200,200,200,200,200,200,200,200,200,200,200,200,200,200,200,200,200,200,200,200,200,200,200,200,200,200,200","0,5,11,15,20,25,31,35,40,45,50,55,60,65,71,76,80,86,90,95,100,105,110,116,120,125,131,135,140,146,150,156,160,165,171,175,180,186,190,195,201,205,211,215,220,226,230,235,241,245,251,255","51","","20","","","","",""
"","html-keyboard-response","19","18021","0.0-4.0-7.1","null","","","","","<p style=color:green;>SUCCESS! + 20 points</p> SCORE: 20, Trial number: 1","null","","feedback","","","","","","easy","20","200","100","273.22330470336317,103.22330470336314","SUCCESS!",""
"","mousetracking","20","18453","0.0-4.0-0.2","430","","","","","<div style=""font-size:60px;"">+</div>","","","ITI","FIX",",518,518,518,518,518,518,518,518,518,518,518,518,518,518,518,518,518,518,518,518,518,518,518,518,520,520,520,520,520,520,520,520,520,520,520,520,520,520,520,520,520,520,520,520,520,520,520,520,520,520,520,520,520,520,520,520,520,520,520,520,520,520,520,520,520,520,520,520,520,520,520,520,520,520,520,520,520,520,520,520,520,520,520,520,520",",329,329,329,329,329,329,329,329,329,329,329,329,329,329,329,329,329,329,329,329,329,329,329,329,321,321,321,321,321,321,321,321,321,321,321,321,321,321,321,321,321,321,321,321,321,321,321,321,321,321,321,321,321,321,321,321,321,321,321,321,321,321,321,321,321,321,321,321,321,321,321,321,321,321,321,321,321,321,321,321,321,321,321,321,321","0,6,11,16,21,26,31,36,40,46,51,56,61,67,71,75,81,87,91,96,101,106,111,115,121,127,131,136,141,146,151,156,161,166,171,176,181,186,191,196,201,206,210,216,222,226,230,236,241,246,251,255,261,267,271,276,281,286,291,295,301,306,311,316,321,326,331,335,341,346,350,356,361,366,371,376,381,386,390,396,401,406,411,416,421,426","85","easy","","","","","",""
"","mousetracking","21","18961","0.0-4.0-1.2","507","","","","","<div style=""font-size:60px;"">+</div>","","","fixation","FIX",",522,522,522,522,522,522,522,522,522,522,522,522,522,522,522,522,522,522,522,522,522,522,522,522,522,522,522,522,522,522,522,522,522,522,522,522,522,522,522,522,522,522,522,522,522,522,522,522,522,522,522,522,522,522,522,522,522,522,522,522,522,522,522,522,522,522,522,522,522,522,522,522,522,522,522,522,522,522,522,522,522,522,522,522,522,522,522,522,522,522,522,522,522,522,522,522,522,522,522,522,522",",314,314,314,314,314,314,314,314,314,314,314,314,314,314,314,314,314,314,314,314,314,314,314,314,314,314,314,314,314,314,314,314,314,314,314,314,314,314,314,314,314,314,314,314,314,314,314,314,314,314,314,314,314,314,314,314,314,314,314,314,314,314,314,314,314,314,314,314,314,314,314,314,314,314,314,314,314,314,314,314,314,314,314,314,314,314,314,314,314,314,314,314,314,314,314,314,314,314,314,314,314","0,6,11,16,20,26,31,35,41,46,51,56,60,66,71,75,81,86,91,96,100,106,111,115,121,126,131,136,141,146,152,156,161,167,171,176,181,186,191,196,200,206,211,215,221,226,231,236,240,246,251,255,261,266,271,276,280,286,291,295,301,306,311,316,320,326,331,335,341,346,351,356,361,366,371,375,381,386,392,396,401,406,411,416,421,426,432,436,441,446,451,455,461,466,471,476,481,486,491,495,501,506","101","easy","","","","","",""
"","mousetracking","22","20686","0.0-4.0-2.2","1723","","","","","<div style=""font-size:60px;"">+</div>","","","delay","FIX",",522,522,522,522,522,522,522,522,522,522,522,522,522,522,522,522,522,522,522,522,522,522,522,522,522,522,522,522,522,522,522,522,522,522,522,522,522,522,522,522,522,522,522,522,522,522,522,522,522,522,522,522,522,522,522,522,522,522,522,522,522,522,522,522,522,522,522,522,522,522,522,522,522,522,522,522,522,522,522,522,522,522,522,522,522,522,522,522,522,522,522,522,522,522,522,522,522,522,522,522,522,522,522,522,522,522,522,522,522,522,522,522,522,522,522,522,522,522,522,522,522,522,522,522,522,522,522,522,522,522,522,522,522,522,522,522,522,522,522,522,522,522,522,522,522,522,522,522,522,522,522,522,522,522,522,522,522,522,522,522,522,522,522,522,522,522,522,522,522,522,522,522,522,522,522,522,522,522,522,522,522,522,522,522,522,522,522,522,522,522,522,522,522,522,522,522,522,522,522,522,522,522,522,522,522,522,522,522,522,522,522,522,522,522,522,522,522,522,522,522,522,522,522,522,522,522,522,522,522,522,522,522,522,522,522,522,522,522,522,522,522,522,522,522,522,522,522,522,522,522,522,522,522,522,522,522,522,522,522,522,522,522,522,522,522,522,522,522,522,522,522,522,522,522,522,522,522,522,522,522,522,522,522,522,522,522,522,522,522,522,522,522,522,522,522,522,522,522,522,522,522,522,522,522,522,522,522,522,522,522,522,522,522,522,522,522,522,522,522,522,522,522,522,522,522,522,522,522,522,522,522,522,522,522,522,522,522,522,522,522,522,522,522,522",",314,314,314,314,314,314,314,314,314,314,314,314,314,314,314,314,314,314,314,314,314,314,314,314,314,314,314,314,314,314,314,314,314,314,314,314,314,314,314,314,314,314,314,314,314,314,314,314,314,314,314,314,314,314,314,314,314,314,314,314,314,314,314,314,314,314,314,314,314,314,314,314,314,314,314,314,314,314,314,314,314,314,314,314,314,314,314,314,314,314,314,314,314,314,314,314,314,314,314,314,314,314,314,314,314,314,314,314,314,314,314,314,314,314,314,314,314,314,314,314,314,314,314,314,314,314,314,314,314,314,314,314,314,314,314,314,314,314,314,314,314,314,314,314,314,314,314,314,314,314,314,314,314,314,314,314,314,314,314,314,314,314,314,314,314,314,314,314,314,314,314,314,314,314,314,314,314,314,314,314,314,314,314,314,314,314,314,314,314,314,314,314,314,314,314,314,314,314,314,314,314,314,314,314,314,314,314,314,314,314,314,314,314,314,314,314,314,314,314,314,314,314,314,314,314,314,314,314,314,314,314,314,314,314,314,314,314,314,314,314,314,314,314,314,314,314,314,314,314,314,314,314,314,314,314,314,314,314,314,314,314,314,314,314,314,314,314,314,314,314,314,314,314,314,314,314,314,314,314,314,314,314,314,314,314,314,314,314,314,314,314,314,314,314,314,314,314,314,314,314,314,314,314,314,314,314,314,314,314,314,314,314,314,314,314,314,314,314,314,314,314,314,314,314,314,314,314,314,314,314,314,314,314,314,314,314,314,314,314,314,314,314,314,314","0,6,11,16,20,26,31,36,40,46,51,55,61,65,71,76,81,86,90,96,101,105,111,116,120,126,131,135,141,146,151,156,160,166,171,175,181,186,191,196,200,206,211,215,221,225,231,236,240,246,251,255,261,266,271,276,281,286,291,296,300,306,310,316,321,325,331,336,340,346,351,355,361,365,371,376,381,386,391,395,401,405,411,416,420,426,430,436,441,445,451,456,460,466,471,475,481,485,491,496,500,506,511,515,521,525,531,536,540,546,551,555,561,566,571,576,580,586,591,595,601,606,611,616,621,626,631,635,641,646,651,656,661,666,671,676,680,686,690,695,701,705,711,716,720,726,731,735,741,745,751,756,761,766,771,776,781,785,791,796,800,806,811,816,821,825,831,836,840,846,850,856,861,865,871,876,881,886,891,896,901,905,911,916,920,926,931,935,941,946,951,956,960,966,971,975,981,986,991,996,1000,1006,1011,1015,1021,1025,1031,1036,1040,1046,1051,1055,1061,1066,1071,1076,1081,1086,1091,1095,1101,1106,1110,1116,1121,1125,1131,1136,1140,1146,1151,1155,1161,1165,1171,1176,1180,1186,1191,1195,1201,1205,1211,1216,1220,1226,1231,1236,1241,1245,1251,1256,1260,1266,1270,1276,1281,1285,1291,1296,1300,1306,1312,1316,1321,1325,1331,1336,1340,1346,1351,1355,1361,1365,1371,1376,1380,1386,1391,1395,1401,1406,1410,1416,1421,1425,1431,1436,1440,1446,1450,1456,1461,1465,1471,1476,1480,1486,1492,1496,1501,1505,1511,1516,1520,1526,1531,1535,1541,1546,1551,1556,1561,1566,1571,1575,1581,1586,1591,1595,1601,1605,1611,1616,1620,1626,1631,1635,1641,1646,1651,1656,1660,1666,1671,1675,1681,1686,1691,1696,1700,1706,1711,1715,1721","344","easy","","","","","",""
"","mousetracking","23","20771","0.0-4.0-3.2","83","","","","","<div style=""font-size:60px;"">+</div>","","","rt_catch","FIX",",522,522,522,522,522,522,522,522,522,522,522,522,522,522,522,522",",314,314,314,314,314,314,314,314,314,314,314,314,314,314,314,314","0,5,11,15,21,25,31,35,41,45,51,56,60,66,71,75,81","16","easy","","","","","",""
"","mousetracking","24","21114","0.0-4.0-4.2","342","","","","","<div style=""font-size:60px;"">+</div>","","","rt_window","HIT",",522,522,522,522,522,522,522,522,522,522,522,522,522,522,522,522,522,522,522,522,522,522,522,522,522,522,522,522,522,522,522,522,522,522,522,522,522,522,522,522,522,522,522,522,522,522,522,522,522,522,522,522,522,522,522,522,522,522,522,522,522,522,522,522,522,522,522,522",",314,314,314,314,314,314,314,314,314,314,314,314,314,314,314,314,314,314,314,314,314,314,314,314,314,314,314,314,314,314,314,314,314,314,314,314,314,314,314,314,314,314,314,314,314,314,314,314,314,314,314,314,314,314,314,314,314,314,314,314,314,314,314,314,314,314,314,314","0,5,11,16,20,26,30,35,41,45,51,55,60,66,70,75,81,85,91,95,100,106,110,115,120,125,131,135,141,145,151,156,160,166,170,175,181,185,191,195,200,206,210,215,221,225,231,235,240,245,251,256,260,266,270,275,281,285,291,295,301,305,311,316,320,325,331,336,340","68","easy","","","","","",""
"","mousetracking","25","21224","0.0-4.0-5.2","108","","","","","<div style=""font-size:60px;"">+</div>","","","decision","ACQUIRE_TARG",",,,482,482,482,482,482,482,482,482,482,482,482,482,482,482,482,482,482,358,358",",,,283,283,283,283,283,283,283,283,283,283,283,283,283,283,283,283,283,189,189","0,6,11,16,21,26,30,36,41,46,50,56,61,66,70,76,81,86,90,96,100,106","21","easy","","","","","",""
"","mousetracking","26","21484","0.0-4.0-6.2","260","","","","","<div style=""font-size:60px;"">+</div>","","","targer_hold","SUCCESS",",,348,348,348,348,348,348,348,348,348,348,348,348,348,348,348,348,348,348,348,348,348,348,348,348,348,348,348,348,348,348,348,348,348,348,348,348,348,348,348,348,348,348,348,348,348,348,348,348,348,348",",,179,179,179,179,179,179,179,179,179,179,179,179,179,179,179,179,179,179,179,179,179,179,179,179,179,179,179,179,179,179,179,179,179,179,179,179,179,179,179,179,179,179,179,179,179,179,179,179,179,179","0,6,11,16,21,26,31,37,41,46,51,56,61,66,71,76,81,87,92,96,101,106,112,116,122,126,131,137,141,146,151,156,161,166,171,176,182,186,191,196,201,206,211,216,221,226,232,236,241,247,252,256","51","","20","","","","",""
"","html-keyboard-response","27","22486","0.0-4.0-7.2","null","","","","","<p style=color:green;>SUCCESS! + 20 points</p> SCORE: 40, Trial number: 2","null","","feedback","","","","","","easy","20","220","100","626.7766952966368,103.22330470336314","SUCCESS!",""
"","mousetracking","28","22793","0.0-4.0-0.3","306","","","","","<div style=""font-size:60px;"">+</div>","","","ITI","FIX",",524,524,524,524,524,524,524,524,524,524,524,524,524,524,524,524,524,524,524,524,524,524,524,524,524,524,524,524,524,524,524,524,524,524,524,524,524,524,524,524,524,524,524,524,524,524,524,524,524,524,524,524,524,524,524,524,524,524,524,524,524",",318,318,318,318,318,318,318,318,318,318,318,318,318,318,318,318,318,318,318,318,318,318,318,318,318,318,318,318,318,318,318,318,318,318,318,318,318,318,318,318,318,318,318,318,318,318,318,318,318,318,318,318,318,318,318,318,318,318,318,318,318","0,5,11,15,21,25,30,36,40,46,50,55,61,65,70,76,80,86,90,95,101,105,110,115,120,125,131,135,140,146,150,155,161,165,170,175,180,186,190,195,201,205,210,216,220,226,230,235,241,245,250,256,260,266,270,275,281,285,290,296,300,306","61","easy","","","","","",""
"","mousetracking","29","23298","0.0-4.0-1.3","504","","","","","<div style=""font-size:60px;"">+</div>","","","fixation","FIX",",524,524,524,524,524,524,524,524,524,524,524,524,524,524,524,524,524,524,524,524,524,524,524,524,524,524,524,524,524,524,524,524,524,524,524,524,524,524,524,524,524,524,524,524,524,524,524,524,524,524,524,524,524,524,524,524,524,524,524,524,524,524,524,524,524,524,524,524,524,524,524,524,524,524,524,524,524,524,524,524,524,524,524,524,524,524,524,524,524,524,524,524,524,524,524,524,524,524,524,524",",318,318,318,318,318,318,318,318,318,318,318,318,318,318,318,318,318,318,318,318,318,318,318,318,318,318,318,318,318,318,318,318,318,318,318,318,318,318,318,318,318,318,318,318,318,318,318,318,318,318,318,318,318,318,318,318,318,318,318,318,318,318,318,318,318,318,318,318,318,318,318,318,318,318,318,318,318,318,318,318,318,318,318,318,318,318,318,318,318,318,318,318,318,318,318,318,318,318,318,318","0,5,11,16,20,26,31,35,41,45,51,56,60,66,71,75,81,85,91,96,100,106,110,115,121,125,131,135,141,146,150,156,160,166,171,175,180,186,190,196,201,205,211,216,220,226,230,235,241,245,251,256,260,266,270,276,280,286,291,295,301,305,311,316,320,326,331,335,341,346,350,356,361,365,371,375,381,386,390,396,401,405,411,416,420,426,430,436,441,445,451,456,460,466,470,475,481,485,491,496,500","100","easy","","","","","",""
"","mousetracking","30","24399","0.0-4.0-2.3","1100","","","","","<div style=""font-size:60px;"">+</div>","","","delay","FIX",",524,524,524,524,524,524,524,524,524,524,524,524,524,524,524,524,524,524,524,524,524,524,524,524,524,524,524,524,524,524,524,524,524,524,524,524,524,524,524,524,524,524,524,524,524,524,524,524,524,524,524,524,524,524,524,524,524,524,524,524,524,524,524,524,524,524,524,524,524,524,524,524,524,524,524,524,524,524,524,524,524,524,524,524,524,524,524,524,524,524,524,524,524,524,524,524,524,524,524,524,524,524,524,524,524,524,524,524,524,524,524,524,524,524,524,524,524,524,524,524,524,524,524,524,524,524,524,524,524,524,524,524,524,524,524,524,524,524,524,524,524,524,524,524,524,524,524,524,524,524,524,524,524,524,524,524,524,524,524,524,524,524,524,524,524,524,524,524,524,524,524,524,524,524,524,524,524,524,524,524,524,524,524,524,524,524,524,524,524,524,524,524,524,524,524,524,524,524,524,524,524,524,524,524,524,524,524,524,524,524,524,524,524,524,524,524,524,524,524",",318,318,318,318,318,318,318,318,318,318,318,318,318,318,318,318,318,318,318,318,318,318,318,318,318,318,318,318,318,318,318,318,318,318,318,318,318,318,318,318,318,318,318,318,318,318,318,318,318,318,318,318,318,318,318,318,318,318,318,318,318,318,318,318,318,318,318,318,318,318,318,318,318,318,318,318,318,318,318,318,318,318,318,318,318,318,318,318,318,318,318,318,318,318,318,318,318,318,318,318,318,318,318,318,318,318,318,318,318,318,318,318,318,318,318,318,318,318,318,318,318,318,318,318,318,318,318,318,318,318,318,318,318,318,318,318,318,318,318,318,318,318,318,318,318,318,318,318,318,318,318,318,318,318,318,318,318,318,318,318,318,318,318,318,318,318,318,318,318,318,318,318,318,318,318,318,318,318,318,318,318,318,318,318,318,318,318,318,318,318,318,318,318,318,318,318,318,318,318,318,318,318,318,318,318,318,318,318,318,318,318,318,318,318,318,318,318,318,318","0,6,12,15,21,25,31,36,40,46,51,55,61,65,71,76,80,86,91,95,101,106,111,116,120,126,131,135,141,145,151,156,160,166,170,176,181,185,191,196,201,206,212,216,221,226,231,236,241,246,251,256,261,266,271,275,281,286,291,296,300,306,311,315,321,326,331,336,340,346,351,355,361,366,371,376,380,386,391,395,401,406,411,416,420,426,431,435,441,446,451,455,461,466,471,476,480,486,491,495,501,506,511,516,521,526,531,536,540,546,551,555,561,566,571,576,580,586,591,595,601,606,611,616,621,626,631,635,641,646,651,656,660,666,671,675,681,686,691,696,700,706,711,715,721,726,731,736,740,746,751,755,761,766,771,776,780,786,791,796,801,806,811,816,821,826,831,835,841,846,851,856,861,866,871,875,881,886,891,896,900,906,911,915,921,926,931,936,940,946,951,955,961,966,971,976,980,986,991,995,1001,1006,1011,1016,1020,1026,1031,1035,1041,1045,1051,1056,1061,1066,1070,1076,1080,1086,1091,1095","219","easy","","","","","",""
"","mousetracking","31","24488","0.0-4.0-3.3","87","","","","","<div style=""font-size:60px;"">+</div>","","","rt_catch","FIX",",524,524,524,524,524,524,524,524,524,524,524,524,524,524,524,524,524",",318,318,318,318,318,318,318,318,318,318,318,318,318,318,318,318,318","0,6,12,15,21,27,31,36,40,46,51,55,61,66,71,76,82,86","17","easy","","","","","",""
"","mousetracking","32","24864","0.0-4.0-4.3","375","","","","","<div style=""font-size:60px;"">+</div>","","","rt_window","MISSED",",524,524,524,524,524,524,524,524,524,524,524,524,524,524,524,524,524,524,524,524,524,524,524,524,524,524,524,524,524,524,524,524,524,524,524,524,524,524,524,524,524,524,524,524,524,524,524,524,524,524,524,524,524,524,524,524,524,524,524,524,524,524,524,524,524,524,524,524,524,524,524,524,524,524",",318,318,318,318,318,318,318,318,318,318,318,318,318,318,318,318,318,318,318,318,318,318,318,318,318,318,318,318,318,318,318,318,318,318,318,318,318,318,318,318,318,318,318,318,318,318,318,318,318,318,318,318,318,318,318,318,318,318,318,318,318,318,318,318,318,318,318,318,318,318,318,318,318,318","0,5,11,15,20,26,31,36,40,46,51,55,60,65,71,76,80,86,91,95,101,105,111,116,120,126,131,135,140,146,151,156,160,166,171,175,180,186,191,195,200,205,211,215,221,225,231,236,240,246,251,255,260,265,271,276,280,286,291,295,301,305,311,316,320,326,330,335,341,345,351,355,361,366,371","74","easy","","","","","",""
"","mousetracking","33","25022","0.0-4.0-5.3","157","","","","","<div style=""font-size:60px;"">+</div>","","","decision","ACQUIRE_TARG",",,,508,508,508,508,508,508,508,508,508,508,508,508,508,508,508,508,508,508,508,508,508,508,508,508,508,508,508,322,322",",,,331,331,331,331,331,331,331,331,331,331,331,331,331,331,331,331,331,331,331,331,331,331,331,331,331,331,331,491,491","0,6,11,16,20,25,31,35,40,46,51,55,61,65,71,76,80,86,91,96,101,106,111,115,120,126,131,136,140,146,151,156","31","easy","","","","","",""
"","mousetracking","34","25284","0.0-4.0-6.3","261","","","","","<div style=""font-size:60px;"">+</div>","","","targer_hold","SUCCESS",",,308,308,308,308,308,308,308,308,308,308,308,308,308,308,308,308,308,308,308,308,308,308,308,308,308,308,308,308,308,308,308,308,308,308,308,308,308,308,308,308,308,308,308,308,308,308,308,308,308,308,308",",,508,508,508,508,508,508,508,508,508,508,508,508,508,508,508,508,508,508,508,508,508,508,508,508,508,508,508,508,508,508,508,508,508,508,508,508,508,508,508,508,508,508,508,508,508,508,508,508,508,508,508","0,6,10,15,21,25,30,35,40,45,51,55,60,65,70,76,81,85,90,96,100,105,110,116,121,125,131,135,140,146,150,156,161,165,170,176,180,185,191,195,200,205,210,216,220,225,231,235,240,246,250,256,261","52","","50","","","","",""
"","html-keyboard-response","35","26290","0.0-4.0-7.3","null","","","","","<p style=color:red;>TOO SLOW - 20 points</p> SCORE: 40, Trial number: 2","null","","feedback","","","","","","easy","50","230","100","626.7766952966368,456.77669529663683","MISSED",""
"","mousetracking","36","26599","0.0-4.0-0.4","307","","","","","<div style=""font-size:60px;"">+</div>","","","ITI","FIX",",529,529,529,529,529,529,529,529,529,529,529,529,529,529,529,529,529,529,529,529,529,529,529,529,529,529,529,529,529,529,529,529,529,529,529,529,529,529,529,529,529,529,529,529,529,529,529,529,529,529,529,529,529,529,529,529,529,529,529,529,529",",291,291,291,291,291,291,291,291,291,291,291,291,291,291,291,291,291,291,291,291,291,291,291,291,291,291,291,291,291,291,291,291,291,291,291,291,291,291,291,291,291,291,291,291,291,291,291,291,291,291,291,291,291,291,291,291,291,291,291,291,291","0,5,10,15,20,26,30,35,40,45,51,55,60,66,70,75,80,85,90,95,100,106,110,115,121,125,130,135,140,145,150,155,160,166,170,175,180,185,190,196,200,206,210,215,221,225,230,236,240,245,251,255,260,266,270,275,280,285,290,296,300,306","61","easy","","","","","",""
"","mousetracking","37","27106","0.0-4.0-1.4","506","","","","","<div style=""font-size:60px;"">+</div>","","","fixation","FIX",",529,529,529,529,529,529,529,529,529,529,529,529,529,529,529,529,529,529,529,529,529,529,529,529,529,529,529,529,529,529,529,529,529,529,529,529,529,529,529,529,529,529,529,529,529,529,529,529,529,529,529,529,529,529,529,529,529,529,529,529,529,529,529,529,529,529,529,529,529,529,529,529,529,529,529,529,529,529,529,529,529,529,529,529,529,529,529,529,529,529,529,529,529,529,529,529,529,529,529,529,529",",291,291,291,291,291,291,291,291,291,291,291,291,291,291,291,291,291,291,291,291,291,291,291,291,291,291,291,291,291,291,291,291,291,291,291,291,291,291,291,291,291,291,291,291,291,291,291,291,291,291,291,291,291,291,291,291,291,291,291,291,291,291,291,291,291,291,291,291,291,291,291,291,291,291,291,291,291,291,291,291,291,291,291,291,291,291,291,291,291,291,291,291,291,291,291,291,291,291,291,291,291","0,6,11,16,20,26,31,36,41,47,51,56,62,66,71,76,81,86,90,96,101,106,111,116,121,126,131,136,141,146,151,156,161,166,171,176,181,186,191,196,201,206,211,217,221,226,231,235,241,246,251,256,261,266,271,276,281,286,291,296,301,306,311,316,321,326,331,336,341,347,351,356,361,366,372,376,381,386,391,396,401,406,411,417,421,426,430,436,441,446,451,456,461,466,471,476,481,487,491,496,501,506","101","easy","","","","","",""
"","mousetracking","38","28534","0.0-4.0-2.4","1427","","","","","<div style=""font-size:60px;"">+</div>","","","delay","FIX",",528,528,528,528,528,528,528,528,528,528,528,528,528,528,528,528,528,528,528,528,528,528,528,528,528,528,528,528,528,528,528,528,528,528,528,528,528,528,528,528,528,528,528,528,528,528,528,528,528,528,528,528,528,528,528,528,528,528,528,528,528,528,528,528,528,528,528,528,528,528,528,528,528,528,528,528,528,528,528,528,528,528,528,528,528,528,528,528,528,528,528,528,528,528,528,528,528,528,528,528,528,528,528,528,528,528,528,528,528,528,528,528,528,528,528,528,528,528,528,528,528,528,528,528,528,528,528,528,528,528,528,528,528,528,528,528,528,528,528,528,528,528,528,528,528,528,528,528,528,528,528,528,528,528,528,528,528,528,528,528,528,528,528,528,528,528,528,528,528,528,528,528,528,528,528,528,528,528,528,528,528,528,528,528,528,528,528,528,528,528,528,528,528,528,528,528,528,528,528,528,528,528,528,528,528,528,528,528,528,528,528,528,528,528,528,528,528,528,528,528,528,528,528,528,528,528,528,528,528,528,528,528,528,528,528,528,528,528,528,528,528,528,528,528,528,528,528,528,528,528,528,528,528,528,528,528,528,528,528,528,528,528,528,528,528,528,528,528,528,528,528,528,528,528,528,528,528,528,528,528,528,528,528,528,528",",297,297,297,297,297,297,297,297,297,297,297,297,297,297,297,297,297,297,297,297,297,297,297,297,297,297,297,297,297,297,297,297,297,297,297,297,297,297,297,297,297,297,297,297,297,297,297,297,297,297,297,297,297,297,297,297,297,297,297,297,297,297,297,297,297,297,297,297,297,297,297,297,297,297,297,297,297,297,297,297,297,297,297,297,297,297,297,297,297,297,297,297,297,297,297,297,297,297,297,297,297,297,297,297,297,297,297,297,297,297,297,297,297,297,297,297,297,297,297,297,297,297,297,297,297,297,297,297,297,297,297,297,297,297,297,297,297,297,297,297,297,297,297,297,297,297,297,297,297,297,297,297,297,297,297,297,297,297,297,297,297,297,297,297,297,297,297,297,297,297,297,297,297,297,297,297,297,297,297,297,297,297,297,297,297,297,297,297,297,297,297,297,297,297,297,297,297,297,297,297,297,297,297,297,297,297,297,297,297,297,297,297,297,297,297,297,297,297,297,297,297,297,297,297,297,297,297,297,297,297,297,297,297,297,297,297,297,297,297,297,297,297,297,297,297,297,297,297,297,297,297,297,297,297,297,297,297,297,297,297,297,297,297,297,297,297,297,297,297,297,297,297,297,297,297,297,297,297,297,297,297,297,297,297,297","0,5,10,15,21,25,31,35,40,46,50,55,61,65,71,75,80,86,90,95,100,105,111,115,120,126,130,136,140,146,151,155,160,165,171,176,180,186,190,195,201,205,211,216,220,226,230,235,241,245,251,256,260,266,270,276,280,285,291,295,300,306,310,315,320,325,331,335,341,346,350,355,360,365,371,375,380,386,390,395,400,405,411,415,421,426,431,436,440,445,451,455,461,465,471,475,480,485,491,495,500,506,510,515,520,525,531,535,540,546,550,555,560,566,571,575,581,585,591,596,600,605,611,615,620,626,630,635,640,645,651,655,660,666,670,675,681,685,691,695,700,706,710,715,720,725,731,735,740,746,750,755,760,765,771,775,781,785,790,796,800,805,811,815,821,826,830,836,840,846,851,855,860,866,870,875,881,885,891,896,900,906,911,915,921,926,930,935,941,945,951,956,960,965,971,975,980,986,991,995,1000,1006,1010,1015,1021,1025,1031,1035,1041,1045,1051,1056,1060,1065,1071,1075,1080,1086,1090,1095,1101,1105,1111,1116,1120,1125,1131,1135,1140,1145,1151,1155,1160,1165,1171,1175,1180,1186,1190,1195,1201,1205,1211,1216,1220,1226,1231,1235,1241,1245,1251,1256,1260,1266,1271,1275,1281,1285,1291,1296,1300,1306,1311,1315,1321,1325,1331,1336,1340,1346,1351,1355,1361,1366,1370,1375,1380,1386,1391,1395,1401,1405,1411,1416,1420,1426","285","easy","","","","","",""
"","mousetracking","39","28623","0.0-4.0-3.4","87","","","","","<div style=""font-size:60px;"">+</div>","","","rt_catch","FIX",",528,528,528,528,528,528,528,528,528,528,528,528,528,528,528,528,528",",297,297,297,297,297,297,297,297,297,297,297,297,297,297,297,297,297","0,6,11,16,21,26,32,36,41,46,51,56,61,67,71,76,82,86","17","easy","","","","","",""
"","mousetracking","40","28947","0.0-4.0-4.4","323","","","","","<div style=""font-size:60px;"">+</div>","","","rt_window","HIT",",528,528,528,528,528,528,528,528,528,528,528,528,528,528,528,528,528,528,528,528,528,528,528,528,528,528,528,528,528,528,528,528,528,528,528,528,528,528,528,528,528,528,528,528,528,528,528,528,528,528,528,528,528,528,528,528,528,528,528,528,528,528,528,528",",297,297,297,297,297,297,297,297,297,297,297,297,297,297,297,297,297,297,297,297,297,297,297,297,297,297,297,297,297,297,297,297,297,297,297,297,297,297,297,297,297,297,297,297,297,297,297,297,297,297,297,297,297,297,297,297,297,297,297,297,297,297,297,297","0,5,11,15,21,26,31,35,41,45,50,56,60,66,71,75,81,86,90,96,100,105,111,115,120,126,130,135,141,145,150,156,160,166,171,175,181,186,190,196,201,205,211,215,220,226,230,236,241,245,251,255,260,266,270,275,281,285,291,295,300,306,311,315,320","64","easy","","","","","",""
"","mousetracking","41","29306","0.0-4.0-5.4","358","","","","","<div style=""font-size:60px;"">+</div>","","","decision","ACQUIRE_TARG",",,,502,502,502,502,502,502,502,502,502,502,502,502,502,502,502,502,502,502,502,502,502,502,502,502,502,502,502,502,502,502,502,502,502,502,502,502,502,502,502,502,502,502,502,502,502,502,502,502,502,502,502,502,502,502,502,502,502,502,502,502,502,502,502,502,502,502,502,365,365",",,,271,271,271,271,271,271,271,271,271,271,271,271,271,271,271,271,271,271,271,271,271,271,271,271,271,271,271,271,271,271,271,271,271,271,271,271,271,271,271,271,271,271,271,271,271,271,271,271,271,271,271,271,271,271,271,271,271,271,271,271,271,271,271,271,271,271,271,150,150","0,6,11,16,21,26,30,35,41,46,51,56,61,66,71,76,82,86,90,96,101,106,110,115,121,126,131,135,141,146,151,156,162,165,171,175,181,187,191,196,201,206,211,215,221,227,231,236,241,247,251,256,261,265,270,276,281,286,291,296,301,306,311,315,321,326,331,335,341,346,350,356","71","easy","","","","","",""
"","mousetracking","42","29566","0.0-4.0-6.4","259","","","","","<div style=""font-size:60px;"">+</div>","","","targer_hold","SUCCESS",",,363,363,363,363,363,363,363,363,363,363,363,363,363,363,363,363,363,363,363,363,363,363,363,363,363,363,363,363,363,363,363,363,363,363,363,363,363,363,363,363,363,363,363,363,363,363,363,363,363,363",",,148,148,148,148,148,148,148,148,148,148,148,148,148,148,148,148,148,148,148,148,148,148,148,148,148,148,148,148,148,148,148,148,148,148,148,148,148,148,148,148,148,148,148,148,148,148,148,148,148,148","0,6,11,16,21,26,31,35,41,46,51,55,61,66,72,76,81,85,91,96,101,106,111,115,121,126,131,136,140,146,151,155,161,167,171,176,181,186,192,196,201,206,211,215,221,226,231,236,242,246,251,255","51","","50","","","","",""
"","html-keyboard-response","43","30568","0.0-4.0-7.4","null","","","","","<p style=color:green;>SUCCESS! + 50 points</p> SCORE: 90, Trial number: 3","null","","feedback","","","","","","easy","50","210","50","626.7766952966368,103.22330470336314","SUCCESS!",""
"","mousetracking","44","30873","0.0-4.0-0.5","304","","","","","<div style=""font-size:60px;"">+</div>","","","ITI","FIX",",533,533,533,533,533,533,533,533,533,533,533,533,533,533,533,533,533,533,533,533,533,533,533,533,533,533,533,533,533,533,533,533,533,533,533,533,533,533,533,533,533,533,533,533,533,533,533,533,533,533,533,533,533,533,533,533,533,533,533,533",",297,297,297,297,297,297,297,297,297,297,297,297,297,297,297,297,297,297,297,297,297,297,297,297,297,297,297,297,297,297,297,297,297,297,297,297,297,297,297,297,297,297,297,297,297,297,297,297,297,297,297,297,297,297,297,297,297,297,297,297","0,6,10,15,21,25,31,36,40,46,51,55,61,65,70,76,80,86,91,95,101,106,110,115,121,125,130,136,140,146,151,155,161,166,170,176,180,185,191,195,201,206,210,215,221,225,230,236,240,246,251,255,261,266,270,275,281,285,291,296,300","60","easy","","","","","",""
"","mousetracking","45","31379","0.0-4.0-1.5","505","","","","","<div style=""font-size:60px;"">+</div>","","","fixation","FIX",",533,533,533,533,533,533,533,533,533,533,533,533,533,533,533,533,533,533,533,533,533,533,533,533,533,533,533,533,533,533,533,533,533,533,533,533,533,533,533,533,533,533,533,533,533,533,533,533,533,533,533,533,533,533,533,533,533,533,533,533,533,533,533,533,533,533,533,533,533,533,533,533,533,533,533,533,533,533,533,533,533,533,533,533,533,533,533,533,533,533,533,533,533,533,533,533,533,533,533,533",",297,297,297,297,297,297,297,297,297,297,297,297,297,297,297,297,297,297,297,297,297,297,297,297,297,297,297,297,297,297,297,297,297,297,297,297,297,297,297,297,297,297,297,297,297,297,297,297,297,297,297,297,297,297,297,297,297,297,297,297,297,297,297,297,297,297,297,297,297,297,297,297,297,297,297,297,297,297,297,297,297,297,297,297,297,297,297,297,297,297,297,297,297,297,297,297,297,297,297,297","0,6,11,16,20,26,31,36,41,45,51,56,60,66,71,75,81,85,91,96,100,106,111,115,121,126,131,136,140,146,151,156,161,165,171,176,180,186,191,195,201,206,211,216,221,225,231,236,240,246,250,256,261,265,271,276,280,286,291,296,301,306,311,316,320,326,331,335,341,346,351,356,361,366,371,375,381,386,390,396,401,406,411,416,420,426,430,436,441,445,451,456,460,466,471,476,481,486,491,496,501","100","easy","","","","","",""
"","mousetracking","46","32230","0.0-4.0-2.5","850","","","","","<div style=""font-size:60px;"">+</div>","","","delay","FIX",",533,533,533,533,533,533,533,533,533,533,533,533,533,533,533,533,533,533,533,533,533,533,533,533,533,533,533,533,533,533,533,533,533,533,533,533,533,533,533,533,533,533,533,533,533,533,533,533,533,533,533,533,533,533,533,533,533,533,533,533,533,533,533,533,533,533,533,533,533,533,533,533,533,533,533,533,533,533,533,533,533,533,533,533,533,533,533,533,533,533,533,533,533,533,533,533,533,533,533,533,533,533,533,533,533,533,533,533,533,533,533,533,533,533,533,533,533,533,533,533,533,533,533,533,533,533,533,533,533,533,533,533,533,533,533,533,533,533,533,533,533,533,533,533,533,533,533,533,533,533,533,533,533,533,533,533,533,533,533,533,533,533,533,533,533,533,533,533,533",",297,297,297,297,297,297,297,297,297,297,297,297,297,297,297,297,297,297,297,297,297,297,297,297,297,297,297,297,297,297,297,297,297,297,297,297,297,297,297,297,297,297,297,297,297,297,297,297,297,297,297,297,297,297,297,297,297,297,297,297,297,297,297,297,297,297,297,297,297,297,297,297,297,297,297,297,297,297,297,297,297,297,297,297,297,297,297,297,297,297,297,297,297,297,297,297,297,297,297,297,297,297,297,297,297,297,297,297,297,297,297,297,297,297,297,297,297,297,297,297,297,297,297,297,297,297,297,297,297,297,297,297,297,297,297,297,297,297,297,297,297,297,297,297,297,297,297,297,297,297,297,297,297,297,297,297,297,297,297,297,297,297,297,297,297,297,297,297,297","0,6,11,15,20,26,30,36,41,45,50,56,60,66,71,75,81,86,90,96,101,106,111,116,120,126,131,135,141,146,150,156,160,166,171,175,180,186,190,196,201,205,211,216,220,226,231,235,241,245,250,256,260,266,271,275,281,286,290,296,301,306,311,316,320,326,330,335,341,345,350,356,360,366,371,375,381,386,390,396,401,405,411,416,420,426,431,435,441,445,450,456,460,466,471,475,481,486,490,496,501,505,511,516,521,526,530,535,541,546,550,556,561,565,571,575,581,586,590,596,601,606,611,615,621,626,630,635,641,645,651,656,660,666,671,675,681,685,690,696,701,706,711,716,720,726,731,735,741,745,750,756,760,766,771,775,781,786,790,796,801,805,811,815,820,826,830,835,841,845","169","easy","","","","","",""
"","mousetracking","47","32319","0.0-4.0-3.5","88","","","","","<div style=""font-size:60px;"">+</div>","","","rt_catch","FIX",",533,533,533,533,533,533,533,533,533,533,533,533,533,533,533,533,533",",297,297,297,297,297,297,297,297,297,297,297,297,297,297,297,297,297","1,6,12,17,21,27,31,36,42,46,51,56,61,66,72,76,81,86","17","easy","","","","","",""
"","mousetracking","48","32695","0.0-4.0-4.5","375","","","","","<div style=""font-size:60px;"">+</div>","","","rt_window","MISSED",",533,533,533,533,533,533,533,533,533,533,533,533,533,533,533,533,533,533,533,533,533,533,533,533,533,533,533,533,533,533,533,533,533,533,533,533,533,533,533,533,533,533,533,533,533,533,533,533,533,533,533,533,533,533,533,533,533,533,533,533,533,533,533,533,533,533,533,533,533,533,533,533,533,533",",297,297,297,297,297,297,297,297,297,297,297,297,297,297,297,297,297,297,297,297,297,297,297,297,297,297,297,297,297,297,297,297,297,297,297,297,297,297,297,297,297,297,297,297,297,297,297,297,297,297,297,297,297,297,297,297,297,297,297,297,297,297,297,297,297,297,297,297,297,297,297,297,297,297","0,5,11,15,21,26,30,36,40,46,51,55,61,66,70,76,81,85,91,96,100,106,111,115,121,126,130,136,141,145,151,156,161,166,171,175,181,185,190,196,200,206,211,215,221,226,230,236,241,245,251,256,260,266,271,275,281,286,290,296,301,306,311,315,321,326,330,336,341,345,351,355,361,366,370","74","easy","","","","","",""
"","mousetracking","49","32891","0.0-4.0-5.5","194","","","","","<div style=""font-size:60px;"">+</div>","","","decision","ACQUIRE_TARG",",546,546,546,546,546,546,546,546,546,546,546,546,546,546,546,546,546,546,546,546,546,546,546,546,546,546,546,546,546,546,546,546,546,546,546,546,675,675",",278,278,278,278,278,278,278,278,278,278,278,278,278,278,278,278,278,278,278,278,278,278,278,278,278,278,278,278,278,278,278,278,278,278,278,278,126,126","0,5,11,16,21,26,30,35,41,46,51,55,60,65,71,75,80,85,90,96,100,106,110,116,120,125,131,135,140,146,150,155,160,166,171,176,181,185,190","38","easy","","","","","",""
"","mousetracking","50","33150","0.0-4.0-6.5","258","","","","","<div style=""font-size:60px;"">+</div>","","","targer_hold","SUCCESS",",678,678,678,678,678,678,678,678,678,678,678,678,678,678,678,678,678,678,678,678,678,678,678,678,678,678,678,678,678,678,678,678,678,678,678,678,678,678,678,678,678,678,678,678,678,678,678,678,678,678,678",",123,123,123,123,123,123,123,123,123,123,123,123,123,123,123,123,123,123,123,123,123,123,123,123,123,123,123,123,123,123,123,123,123,123,123,123,123,123,123,123,123,123,123,123,123,123,123,123,123,123,123","0,6,11,16,22,26,31,36,42,47,51,55,61,66,71,76,81,86,91,96,101,106,112,116,121,127,131,136,141,146,151,156,161,166,171,176,181,186,191,196,202,206,212,216,221,226,231,236,241,246,251,256","51","","20","","","","",""
"","html-keyboard-response","51","34151","0.0-4.0-7.5","null","","","","","<p style=color:red;>TOO SLOW - 20 points</p> SCORE: 90, Trial number: 3","null","","feedback","","","","","","easy","20","210","50","273.22330470336317,103.22330470336314","MISSED",""
"","mousetracking","52","34459","0.0-4.0-0.6","307","","","","","<div style=""font-size:60px;"">+</div>","","","ITI","FIX",",532,532,532,532,532,532,532,532,532,532,532,532,532,532,532,532,532,532,532,532,532,532,532,532,532,532,532,532,532,532,532,532,532,532,532,532,532,532,532,532,532,532,532,532,532,532,532,532,532,532,532,532,532,532,532,532,532,532,532,532,532",",309,309,309,309,309,309,309,309,309,309,309,309,309,309,309,309,309,309,309,309,309,309,309,309,309,309,309,309,309,309,309,309,309,309,309,309,309,309,309,309,309,309,309,309,309,309,309,309,309,309,309,309,309,309,309,309,309,309,309,309,309","0,6,10,15,21,26,30,36,41,46,51,56,61,66,71,75,81,86,90,96,101,107,110,116,121,126,131,136,141,146,151,155,161,165,171,176,180,186,191,195,201,206,210,216,220,226,231,235,241,246,250,255,261,266,270,276,280,286,291,295,301,306","61","easy","","","","","",""
"","mousetracking","53","34964","0.0-4.0-1.6","504","","","","","<div style=""font-size:60px;"">+</div>","","","fixation","FIX",",532,532,532,532,532,532,532,532,532,532,532,532,532,532,532,532,532,532,532,532,532,532,532,532,532,532,532,532,532,532,532,532,532,532,532,532,532,532,532,532,532,532,532,532,532,532,532,532,532,532,532,532,532,532,532,532,532,532,532,532,532,532,532,532,532,532,532,532,532,532,532,532,532,532,532,532,532,532,532,532,532,532,532,532,532,532,532,532,532,532,532,532,532,532,532,532,532,532,532,532",",309,309,309,309,309,309,309,309,309,309,309,309,309,309,309,309,309,309,309,309,309,309,309,309,309,309,309,309,309,309,309,309,309,309,309,309,309,309,309,309,309,309,309,309,309,309,309,309,309,309,309,309,309,309,309,309,309,309,309,309,309,309,309,309,309,309,309,309,309,309,309,309,309,309,309,309,309,309,309,309,309,309,309,309,309,309,309,309,309,309,309,309,309,309,309,309,309,309,309,309","0,6,12,16,21,25,31,36,40,46,51,55,61,66,71,76,80,86,91,95,101,105,111,116,121,126,131,136,141,146,151,156,160,166,171,176,181,186,191,196,200,206,211,216,221,226,230,236,241,246,251,256,261,265,271,276,280,286,291,295,301,306,311,316,321,326,331,336,341,346,352,356,361,365,371,375,381,386,391,396,401,406,411,416,421,426,432,436,441,445,451,456,460,466,472,476,481,486,491,496,501","100","easy","","","","","",""
"","mousetracking","54","36004","0.0-4.0-2.6","1039","","","","","<div style=""font-size:60px;"">+</div>","","","delay","FIX",",536,536,536,536,536,536,536,536,536,536,536,536,536,536,536,536,536,536,536,536,536,536,536,536,536,536,536,536,536,536,536,536,536,536,536,536,536,536,536,536,536,536,536,536,536,536,536,536,536,536,536,536,536,536,536,536,536,536,536,536,536,536,536,536,536,536,536,536,536,536,536,536,536,536,536,536,536,536,536,536,536,536,536,536,536,536,536,536,536,536,536,536,536,536,536,536,536,536,536,536,536,536,536,536,536,536,536,536,536,536,536,536,536,536,536,536,536,536,536,536,536,536,536,536,536,536,536,536,536,536,536,536,536,536,536,536,536,536,536,536,536,536,536,536,536,536,536,536,536,536,536,536,536,536,536,536,536,536,536,536,536,536,536,536,536,536,536,536,536,536,536,536,536,536,536,536,536,536,536,536,536,536,536,536,536,536,536,536,536,536,536,536,536,536,536,536,536,536,536,536,536,536,536,536,536,536,536",",296,296,296,296,296,296,296,296,296,296,296,296,296,296,296,296,296,296,296,296,296,296,296,296,296,296,296,296,296,296,296,296,296,296,296,296,296,296,296,296,296,296,296,296,296,296,296,296,296,296,296,296,296,296,296,296,296,296,296,296,296,296,296,296,296,296,296,296,296,296,296,296,296,296,296,296,296,296,296,296,296,296,296,296,296,296,296,296,296,296,296,296,296,296,296,296,296,296,296,296,296,296,296,296,296,296,296,296,296,296,296,296,296,296,296,296,296,296,296,296,296,296,296,296,296,296,296,296,296,296,296,296,296,296,296,296,296,296,296,296,296,296,296,296,296,296,296,296,296,296,296,296,296,296,296,296,296,296,296,296,296,296,296,296,296,296,296,296,296,296,296,296,296,296,296,296,296,296,296,296,296,296,296,296,296,296,296,296,296,296,296,296,296,296,296,296,296,296,296,296,296,296,296,296,296,296,296","0,5,11,16,21,26,31,35,41,46,50,56,61,65,71,76,80,86,91,95,101,106,110,116,120,126,131,135,141,146,150,155,161,165,170,176,180,186,191,195,201,206,210,216,221,226,231,236,240,246,251,255,261,265,270,276,280,286,291,296,301,305,311,316,320,326,331,335,341,346,350,355,361,365,370,376,380,386,391,395,401,406,410,416,421,426,431,436,440,446,451,455,461,466,470,476,481,485,490,496,500,506,511,515,521,526,530,536,541,545,551,556,560,566,571,575,581,585,590,596,600,606,611,615,621,626,630,636,640,646,651,655,661,665,670,676,680,686,691,695,701,705,710,716,720,726,730,735,741,745,751,756,760,766,770,776,781,786,791,795,801,806,810,816,821,825,830,836,840,846,851,855,861,866,870,876,880,886,890,895,901,905,911,915,921,926,930,936,940,946,951,955,961,965,970,976,980,986,990,995,1001,1005,1010,1016,1020,1026,1031,1035","207","easy","","","","","",""
"","mousetracking","55","36091","0.0-4.0-3.6","85","","","","","<div style=""font-size:60px;"">+</div>","","","rt_catch","FIX",",536,536,536,536,536,536,536,536,536,536,536,536,536,536,536,536,536",",296,296,296,296,296,296,296,296,296,296,296,296,296,296,296,296,296","0,6,10,15,20,25,30,36,40,46,51,55,60,66,70,75,81,85","17","easy","","","","","",""
"","mousetracking","56","36414","0.0-4.0-4.6","322","","","","","<div style=""font-size:60px;"">+</div>","","","rt_window","HIT",",536,536,536,536,536,536,536,536,536,536,536,536,536,536,536,536,536,536,536,536,536,536,536,536,536,536,536,536,536,536,536,536,536,536,536,536,536,536,536,536,536,536,536,536,536,536,536,536,536,536,536,536,536,536,536,536,536,536,536,536,536,536,536,536",",296,296,296,296,296,296,296,296,296,296,296,296,296,296,296,296,296,296,296,296,296,296,296,296,296,296,296,296,296,296,296,296,296,296,296,296,296,296,296,296,296,296,296,296,296,296,296,296,296,296,296,296,296,296,296,296,296,296,296,296,296,296,296,296","0,5,11,15,20,26,30,35,41,45,51,55,60,66,70,75,80,86,91,95,101,106,110,116,120,126,131,135,141,145,151,156,160,166,170,175,181,185,191,196,200,206,210,215,221,225,231,236,240,246,250,255,261,265,271,275,280,285,291,296,300,306,311,316,320","64","easy","","","","","",""
"","mousetracking","57","36474","0.0-4.0-5.6","59","","","","","<div style=""font-size:60px;"">+</div>","","","decision","ACQUIRE_TARG",",,,578,578,578,578,578,578,578,647,647",",,,250,250,250,250,250,250,250,180,180","0,6,11,16,21,26,31,36,41,45,50,56","11","easy","","","","","",""
"","mousetracking","58","36733","0.0-4.0-6.6","258","","","","","<div style=""font-size:60px;"">+</div>","","","targer_hold","SUCCESS",",661,661,661,661,661,661,661,661,661,661,661,661,661,661,661,661,661,661,661,661,661,661,661,661,661,661,661,661,661,661,661,661,661,661,661,661,661,661,661,661,661,661,661,661,661,661,661,661,661,661,661",",165,165,165,165,165,165,165,165,165,165,165,165,165,165,165,165,165,165,165,165,165,165,165,165,165,165,165,165,165,165,165,165,165,165,165,165,165,165,165,165,165,165,165,165,165,165,165,165,165,165,165","0,6,10,16,21,26,31,36,41,45,51,56,61,65,71,76,80,86,91,95,101,106,111,115,121,126,130,136,140,146,151,155,161,166,170,176,181,185,191,196,200,206,211,215,221,226,230,236,241,245,251,256","51","","10","","","","",""
"","html-keyboard-response","59","37739","0.0-4.0-7.6","null","","","","","<p style=color:green;>SUCCESS! + 10 points</p> SCORE: 100, Trial number: 4","null","","feedback","","","","","","easy","10","210","100","273.22330470336317,103.22330470336314","SUCCESS!",""
"","mousetracking","60","38044","0.0-4.0-0.7","304","","","","","<div style=""font-size:60px;"">+</div>","","","ITI","FIX",",535,535,535,535,535,535,535,535,535,535,535,535,535,535,535,535,535,535,535,535,535,535,535,535,535,535,535,535,535,535,535,535,535,535,535,535,535,535,535,535,535,535,535,535,535,535,535,535,535,535,535,535,535,535,535,535,535,535,535,535",",298,298,298,298,298,298,298,298,298,298,298,298,298,298,298,298,298,298,298,298,298,298,298,298,298,298,298,298,298,298,298,298,298,298,298,298,298,298,298,298,298,298,298,298,298,298,298,298,298,298,298,298,298,298,298,298,298,298,298,298","0,5,10,16,20,25,30,36,40,46,51,55,61,66,70,76,81,85,90,96,100,106,111,115,121,125,130,136,140,146,151,155,161,166,170,176,181,185,191,196,200,206,210,215,221,225,230,236,240,246,251,255,261,266,270,276,281,285,291,296,300","60","easy","","","","","",""
"","mousetracking","61","38552","0.0-4.0-1.7","507","","","","","<div style=""font-size:60px;"">+</div>","","","fixation","FIX",",535,535,535,535,535,535,535,535,535,535,535,535,535,535,535,535,535,535,535,535,535,535,535,535,535,535,535,535,535,535,535,535,535,535,535,535,535,535,535,535,535,535,535,535,535,535,535,535,535,535,535,535,535,535,535,535,535,535,535,535,535,535,535,535,535,535,535,535,535,535,535,535,535,535,535,535,535,535,535,535,535,535,535,535,535,535,535,535,535,535,535,535,535,535,535,535,535,535,535,535,535",",298,298,298,298,298,298,298,298,298,298,298,298,298,298,298,298,298,298,298,298,298,298,298,298,298,298,298,298,298,298,298,298,298,298,298,298,298,298,298,298,298,298,298,298,298,298,298,298,298,298,298,298,298,298,298,298,298,298,298,298,298,298,298,298,298,298,298,298,298,298,298,298,298,298,298,298,298,298,298,298,298,298,298,298,298,298,298,298,298,298,298,298,298,298,298,298,298,298,298,298,298","0,5,11,16,21,26,31,35,41,46,51,56,61,65,71,75,81,86,91,96,101,106,111,115,121,126,130,135,141,145,151,155,160,166,170,175,181,185,191,196,200,206,210,215,221,225,231,236,240,246,251,255,261,266,271,276,280,286,291,295,301,306,311,316,320,326,331,335,341,346,351,356,360,366,371,375,381,386,391,396,400,406,411,415,421,426,431,436,440,446,451,455,461,466,471,476,480,486,491,495,501,506","101","easy","","","","","",""
"","mousetracking","62","39593","0.0-4.0-2.7","1039","","","","","<div style=""font-size:60px;"">+</div>","","","delay","FIX",",535,535,535,535,535,535,535,535,535,535,535,535,535,535,535,535,535,535,535,535,535,535,535,535,535,535,535,535,535,535,535,535,535,535,535,535,535,535,535,535,535,535,535,535,535,535,535,535,535,535,535,535,535,535,535,535,535,535,535,535,535,535,535,535,535,535,535,535,535,535,535,535,535,535,535,535,535,535,535,535,535,535,535,535,535,535,535,535,535,535,535,535,535,535,535,535,535,535,535,535,535,535,535,535,535,535,535,535,535,535,535,535,535,535,535,535,535,535,535,535,535,535,535,535,535,535,535,535,535,535,535,535,535,535,535,535,535,535,535,535,535,535,535,535,535,535,535,535,535,535,535,535,535,535,535,535,535,535,535,535,535,535,535,535,535,535,535,535,535,535,535,535,535,535,535,535,535,535,535,535,535,535,535,535,535,535,535,535,535,535,535,535,535,535,535,535,535,535,535,535,535,535,535,535,535,535,535",",298,298,298,298,298,298,298,298,298,298,298,298,298,298,298,298,298,298,298,298,298,298,298,298,298,298,298,298,298,298,298,298,298,298,298,298,298,298,298,298,298,298,298,298,298,298,298,298,298,298,298,298,298,298,298,298,298,298,298,298,298,298,298,298,298,298,298,298,298,298,298,298,298,298,298,298,298,298,298,298,298,298,298,298,298,298,298,298,298,298,298,298,298,298,298,298,298,298,298,298,298,298,298,298,298,298,298,298,298,298,298,298,298,298,298,298,298,298,298,298,298,298,298,298,298,298,298,298,298,298,298,298,298,298,298,298,298,298,298,298,298,298,298,298,298,298,298,298,298,298,298,298,298,298,298,298,298,298,298,298,298,298,298,298,298,298,298,298,298,298,298,298,298,298,298,298,298,298,298,298,298,298,298,298,298,298,298,298,298,298,298,298,298,298,298,298,298,298,298,298,298,298,298,298,298,298,298","0,6,11,16,21,26,31,36,41,46,51,56,61,66,71,76,81,86,90,96,101,106,111,116,121,126,131,136,141,147,151,156,160,166,171,175,181,186,190,196,201,206,211,216,221,226,230,236,241,246,251,256,261,266,270,276,281,287,291,296,301,306,311,316,321,326,331,336,341,346,351,355,361,366,370,376,380,386,391,396,401,407,411,416,422,426,431,435,441,446,450,456,461,466,471,476,481,486,491,496,501,507,511,516,522,526,531,535,541,546,550,556,561,566,571,576,581,586,591,596,601,607,611,616,621,626,631,635,641,646,651,656,661,666,671,675,681,686,690,696,701,706,711,716,721,726,731,736,741,746,751,755,761,766,770,776,781,787,791,796,801,806,811,816,821,827,831,836,840,846,851,855,861,866,870,876,881,886,891,896,901,906,911,916,921,926,931,936,941,946,951,956,961,966,971,976,980,986,991,996,1001,1006,1010,1016,1021,1027,1031,1036","207","easy","","","","","",""
"","mousetracking","63","39682","0.0-4.0-3.7","87","","","","","<div style=""font-size:60px;"">+</div>","","","rt_catch","FIX",",535,535,535,535,535,535,535,535,535,535,535,535,535,535,535,535,535",",298,298,298,298,298,298,298,298,298,298,298,298,298,298,298,298,298","0,6,11,16,21,25,31,35,40,46,51,55,61,66,71,76,80,86","17","easy","","","","","",""
"","mousetracking","64","40030","0.0-4.0-4.7","347","","","","","<div style=""font-size:60px;"">+</div>","","","rt_window","HIT",",535,535,535,535,535,535,535,535,535,535,535,535,535,535,535,535,535,535,535,535,535,535,535,535,535,535,535,535,535,535,535,535,535,535,535,535,535,535,535,535,535,535,535,535,535,535,535,535,535,535,535,535,535,535,535,535,535,535,535,535,535,535,535,535,535,535,535,535,535",",298,298,298,298,298,298,298,298,298,298,298,298,298,298,298,298,298,298,298,298,298,298,298,298,298,298,298,298,298,298,298,298,298,298,298,298,298,298,298,298,298,298,298,298,298,298,298,298,298,298,298,298,298,298,298,298,298,298,298,298,298,298,298,298,298,298,298,298,298","0,5,11,16,20,26,30,35,41,45,50,56,60,66,71,75,81,85,90,96,100,106,111,115,121,126,130,136,140,146,151,155,161,166,170,176,180,186,191,195,200,206,210,215,221,225,230,236,240,246,250,255,261,265,270,275,281,285,291,296,300,305,310,315,321,325,331,335,341,345","69","easy","","","","","",""
"","mousetracking","65","40432","0.0-4.0-5.7","null","","","","","<div style=""font-size:60px;"">+</div>","","","decision","WRONG_TARG",",,,559,559,559,559,559,559,559,559,559,559,559,559,559,559,559,559,559,559,559,559,559,559,559,559,559,559,559,559,559,559,559,559,559,559,559,559,559,559,559,559,559,559,559,559,559,559,559,559,559,559,559,559,559,559,559,559,559,559,559,559,559,559,559,559,559,559,559,559,559,559,559,559,559,559,559,559,559,559",",,,274,274,274,274,274,274,274,274,274,274,274,274,274,274,274,274,274,274,274,274,274,274,274,274,274,274,274,274,274,274,274,274,274,274,274,274,274,274,274,274,274,274,274,274,274,274,274,274,274,274,274,274,274,274,274,274,274,274,274,274,274,274,274,274,274,274,274,274,274,274,274,274,274,274,274,274,274,274","0,6,11,16,21,26,31,36,41,45,51,56,61,66,71,76,82,86,92,96,101,105,111,116,121,126,131,136,142,146,151,156,161,166,171,176,181,186,191,196,201,206,211,216,221,226,231,236,241,246,251,256,262,266,271,276,281,286,291,296,302,306,311,316,321,325,331,336,341,346,351,356,361,366,371,376,382,386,392,396,401","80","easy","","","","","",""
"","mousetracking","66","40700","0.0-4.0-6.7","267","","","","","<div style=""font-size:60px;"">+</div>","","","targer_hold","SUCCESS",",,,690,690,690,690,690,690,690,690,690,690,690,690,690,690,690,690,690,690,690,690,690,690,690,690,690,690,690,690,690,690,690,690,690,690,690,690,690,690,690,690,690,690,690,690,690,690,690,690,690,690,690",",,,150,150,150,150,150,150,150,150,150,150,150,150,150,150,150,150,150,150,150,150,150,150,150,150,150,150,150,150,150,150,150,150,150,150,150,150,150,150,150,150,150,150,150,150,150,150,150,150,150,150,150","0,6,11,16,21,26,31,36,41,46,51,56,61,66,70,76,80,86,91,96,101,106,111,116,122,126,131,137,141,146,151,156,161,166,171,176,181,186,191,196,201,206,211,216,221,226,231,237,241,246,250,256,261,267","53","","50","","","","",""
"","html-keyboard-response","67","41702","0.0-4.0-7.7","null","","","","","<p style=color:red;>REACH ERROR - 20 points</p> SCORE: 100, Trial number: 4","null","","feedback","","","","","","easy","50","230","50","273.22330470336317,103.22330470336314","REACH ERROR",""
"","mousetracking","68","42010","0.0-4.0-0.8","308","","","","","<div style=""font-size:60px;"">+</div>","","","ITI","FIX",",526,526,526,526,526,526,526,526,526,526,526,526,526,526,526,526,526,526,526,526,526,526,526,526,526,526,526,526,526,526,526,526,526,526,526,526,526,526,526,526,526,526,526,526,526,526,526,526,526,526,526,526,526,526,526,526,526,526,526,526,526",",322,322,322,322,322,322,322,322,322,322,322,322,322,322,322,322,322,322,322,322,322,322,322,322,322,322,322,322,322,322,322,322,322,322,322,322,322,322,322,322,322,322,322,322,322,322,322,322,322,322,322,322,322,322,322,322,322,322,322,322,322","0,6,11,16,21,27,31,36,42,46,51,56,61,67,71,76,81,86,91,96,101,106,111,116,121,126,131,136,141,147,151,156,162,166,171,177,181,186,191,196,201,207,211,216,221,226,231,236,241,247,251,256,261,266,271,276,281,287,292,296,301,306","61","easy","","","","","",""
"","mousetracking","69","42517","0.0-4.0-1.8","505","","","","","<div style=""font-size:60px;"">+</div>","","","fixation","FIX",",526,526,526,526,526,526,526,526,526,526,526,526,526,526,526,526,526,526,526,526,526,526,526,526,526,526,526,526,526,526,526,526,526,526,526,526,526,526,526,526,526,526,526,526,526,526,526,526,526,526,526,526,526,526,526,526,526,526,526,526,526,526,526,526,526,526,526,526,526,526,526,526,526,526,526,526,526,526,526,526,526,526,526,526,526,526,526,526,526,526,526,526,526,526,526,526,526,526,526,526,526",",322,322,322,322,322,322,322,322,322,322,322,322,322,322,322,322,322,322,322,322,322,322,322,322,322,322,322,322,322,322,322,322,322,322,322,322,322,322,322,322,322,322,322,322,322,322,322,322,322,322,322,322,322,322,322,322,322,322,322,322,322,322,322,322,322,322,322,322,322,322,322,322,322,322,322,322,322,322,322,322,322,322,322,322,322,322,322,322,322,322,322,322,322,322,322,322,322,322,322,322,322","0,5,10,16,20,25,30,35,41,45,50,55,60,66,70,75,80,86,90,96,101,106,111,115,121,126,130,136,140,146,150,156,160,165,170,176,180,186,190,196,201,205,211,215,220,225,231,235,241,245,250,255,260,266,270,275,281,285,290,296,300,305,310,315,321,325,330,336,340,345,351,355,360,366,370,375,380,385,390,396,400,405,411,415,420,426,430,435,441,445,450,456,460,466,471,475,480,485,490,496,501,505","101","easy","","","","","",""
"","mousetracking","70","44204","0.0-4.0-2.8","1686","","","","","<div style=""font-size:60px;"">+</div>","","","delay","FIX",",534,534,534,534,534,534,534,534,534,534,534,534,534,534,534,534,534,534,534,534,534,534,534,534,534,534,534,534,534,534,534,534,534,534,534,534,534,534,534,534,534,534,534,534,534,534,534,534,534,534,534,534,534,534,534,534,534,534,534,534,534,534,534,534,534,534,534,534,534,534,534,534,534,534,534,534,534,534,534,534,534,534,534,534,534,534,534,534,534,534,534,534,534,534,534,534,534,534,534,534,534,534,534,534,534,534,534,534,534,534,534,534,534,534,534,534,534,534,534,534,534,534,534,534,534,534,534,534,534,534,534,534,534,534,534,534,534,534,534,534,534,534,534,534,534,534,534,534,534,534,534,534,534,534,534,534,534,534,534,534,534,534,534,534,534,534,534,534,534,534,534,534,534,534,534,534,534,534,534,534,534,534,534,534,534,534,534,534,534,534,534,534,534,534,534,534,534,534,534,534,534,534,534,534,534,534,534,534,534,534,534,534,534,534,534,534,534,534,534,534,534,534,534,534,534,534,534,534,534,534,534,534,534,534,534,534,534,534,534,534,534,534,534,534,534,534,534,534,534,534,534,534,534,534,534,534,534,534,534,534,534,534,534,534,534,534,534,534,534,534,534,534,534,534,534,534,534,534,534,534,534,534,534,534,534,534,534,534,534,534,534,534,534,534,534,534,534,534,534,534,534,534,534,534,534,534,534,534,534,534,534,534,534,534,534,534,534,534,534,534,534,534,534,534,534,534,534,534,534,534,534,534,534,534,534,534,534",",308,308,308,308,308,308,308,308,308,308,308,308,308,308,308,308,308,308,308,308,308,308,308,308,308,308,308,308,308,308,308,308,308,308,308,308,308,308,308,308,308,308,308,308,308,308,308,308,308,308,308,308,308,308,308,308,308,308,308,308,308,308,308,308,308,308,308,308,308,308,308,308,308,308,308,308,308,308,308,308,308,308,308,308,308,308,308,308,308,308,308,308,308,308,308,308,308,308,308,308,308,308,308,308,308,308,308,308,308,308,308,308,308,308,308,308,308,308,308,308,308,308,308,308,308,308,308,308,308,308,308,308,308,308,308,308,308,308,308,308,308,308,308,308,308,308,308,308,308,308,308,308,308,308,308,308,308,308,308,308,308,308,308,308,308,308,308,308,308,308,308,308,308,308,308,308,308,308,308,308,308,308,308,308,308,308,308,308,308,308,308,308,308,308,308,308,308,308,308,308,308,308,308,308,308,308,308,308,308,308,308,308,308,308,308,308,308,308,308,308,308,308,308,308,308,308,308,308,308,308,308,308,308,308,308,308,308,308,308,308,308,308,308,308,308,308,308,308,308,308,308,308,308,308,308,308,308,308,308,308,308,308,308,308,308,308,308,308,308,308,308,308,308,308,308,308,308,308,308,308,308,308,308,308,308,308,308,308,308,308,308,308,308,308,308,308,308,308,308,308,308,308,308,308,308,308,308,308,308,308,308,308,308,308,308,308,308,308,308,308,308,308,308,308,308,308,308,308,308,308,308,308,308,308,308,308,308","0,5,10,15,20,26,30,35,40,45,50,55,60,66,70,75,81,85,90,96,100,105,111,115,120,126,130,135,141,145,150,156,160,165,171,175,180,186,190,195,201,205,210,215,220,226,230,235,241,245,250,256,260,265,270,275,280,286,291,295,300,305,310,315,320,325,330,335,340,346,350,355,361,365,370,376,380,386,391,395,400,406,410,415,421,425,430,435,440,446,450,455,461,465,470,476,480,486,491,495,501,506,510,515,520,525,530,535,540,546,550,555,561,565,570,575,580,586,591,595,600,606,610,615,621,625,630,636,640,646,651,655,661,666,670,675,680,685,690,695,700,706,710,715,721,725,730,736,740,745,750,755,760,765,770,775,781,786,790,795,801,805,810,815,820,826,830,835,841,845,850,856,860,866,870,875,881,885,890,895,900,905,910,915,920,926,930,935,941,945,950,956,960,966,970,975,981,985,990,996,1000,1005,1011,1015,1020,1026,1030,1036,1040,1046,1050,1055,1061,1065,1070,1076,1080,1085,1091,1095,1100,1106,1110,1115,1121,1125,1130,1135,1140,1146,1150,1155,1161,1165,1170,1175,1180,1186,1190,1195,1201,1205,1210,1216,1220,1226,1231,1235,1240,1246,1250,1255,1260,1265,1270,1275,1280,1285,1290,1296,1300,1305,1311,1315,1320,1326,1330,1335,1340,1345,1350,1355,1360,1366,1371,1375,1381,1385,1390,1395,1400,1405,1410,1415,1420,1426,1430,1435,1441,1445,1450,1456,1460,1466,1471,1475,1480,1485,1490,1495,1501,1505,1510,1516,1520,1526,1531,1535,1541,1545,1550,1555,1560,1565,1570,1575,1580,1586,1590,1595,1601,1605,1610,1615,1620,1625,1630,1635,1640,1646,1650,1655,1661,1665,1670,1676,1680,1686","337","easy","","","","","",""
"","mousetracking","71","44289","0.0-4.0-3.8","84","","","","","<div style=""font-size:60px;"">+</div>","","","rt_catch","FIX",",534,534,534,534,534,534,534,534,534,534,534,534,534,534,534,534",",308,308,308,308,308,308,308,308,308,308,308,308,308,308,308,308","0,6,12,16,21,26,31,36,41,46,51,56,61,66,71,76,81","16","easy","","","","","",""
"","mousetracking","72","44664","0.0-4.0-4.8","374","","","","","<div style=""font-size:60px;"">+</div>","","","rt_window","MISSED",",534,534,534,534,534,534,534,534,534,534,534,534,534,534,534,534,534,534,534,534,534,534,534,534,534,534,534,534,534,534,534,534,534,534,534,534,534,534,534,534,534,534,534,534,534,534,534,534,534,534,534,534,534,534,534,534,534,534,534,534,534,534,534,534,534,534,534,534,534,534,534,534,534,534",",308,308,308,308,308,308,308,308,308,308,308,308,308,308,308,308,308,308,308,308,308,308,308,308,308,308,308,308,308,308,308,308,308,308,308,308,308,308,308,308,308,308,308,308,308,308,308,308,308,308,308,308,308,308,308,308,308,308,308,308,308,308,308,308,308,308,308,308,308,308,308,308,308,308","0,5,11,15,21,26,31,36,41,46,51,55,61,66,71,76,80,86,91,96,101,106,111,116,121,126,131,136,141,146,151,155,161,166,171,176,181,186,191,196,201,206,211,216,221,226,231,236,240,246,251,255,261,266,270,276,281,285,291,296,301,307,311,316,320,326,331,336,340,346,351,356,361,366,371","74","easy","","","","","",""
"","mousetracking","73","44840","0.0-4.0-5.8","174","","","","","<div style=""font-size:60px;"">+</div>","","","decision","ACQUIRE_TARG",",,,499,499,499,499,499,499,499,499,499,499,499,499,499,499,499,499,499,499,499,499,499,499,499,499,499,499,499,499,499,499,356,356",",,,284,284,284,284,284,284,284,284,284,284,284,284,284,284,284,284,284,284,284,284,284,284,284,284,284,284,284,284,284,284,153,153","0,6,11,17,20,25,31,35,41,46,51,56,60,65,71,75,81,86,91,96,101,106,111,115,121,125,131,136,140,146,151,155,161,166,170","34","easy","","","","","",""
"","mousetracking","74","45100","0.0-4.0-6.8","259","","","","","<div style=""font-size:60px;"">+</div>","","","targer_hold","SUCCESS",",,352,352,352,352,352,352,352,352,352,352,352,352,352,352,352,352,352,352,352,352,352,352,352,352,352,352,352,352,352,352,352,352,352,352,352,352,352,352,352,352,352,352,352,352,352,352,352,352,352,352",",,149,149,149,149,149,149,149,149,149,149,149,149,149,149,149,149,149,149,149,149,149,149,149,149,149,149,149,149,149,149,149,149,149,149,149,149,149,149,149,149,149,149,149,149,149,149,149,149,149,149","0,5,10,16,20,26,30,35,40,45,51,56,61,65,71,76,81,85,91,95,101,105,111,116,120,126,130,135,141,145,151,156,161,165,171,175,181,185,191,196,200,206,211,215,221,225,231,236,240,246,251,255","51","","50","","","","",""
"","html-keyboard-response","75","46104","0.0-4.0-7.8","null","","","","","<p style=color:red;>TOO SLOW - 20 points</p> SCORE: 100, Trial number: 4","null","","feedback","","","","","","easy","50","210","50","626.7766952966368,103.22330470336314","MISSED",""
"","mousetracking","76","46516","0.0-4.0-0.9","411","","","","","<div style=""font-size:60px;"">+</div>","","","ITI","FIX",",521,521,521,521,521,521,521,521,521,521,521,521,521,521,521,521,521,521,521,521,521,522,522,522,522,522,522,522,522,522,522,522,522,522,522,522,522,522,522,522,522,522,522,522,522,522,522,522,522,522,522,522,522,522,522,522,522,522,522,522,522,522,522,522,522,522,522,522,522,522,522,522,522,522,522,522,522,522,522,522,522,522",",327,327,327,327,327,327,327,327,327,327,327,327,327,327,327,327,327,327,327,327,327,323,323,323,323,323,323,323,323,323,323,323,323,323,323,323,323,323,323,323,323,323,323,323,323,323,323,323,323,323,323,323,323,323,323,323,323,323,323,323,323,323,323,323,323,323,323,323,323,323,323,323,323,323,323,323,323,323,323,323,323,323","0,6,11,15,21,26,32,36,41,46,51,56,61,66,71,76,81,86,92,95,101,106,111,116,121,125,131,136,141,146,151,155,161,166,171,176,181,186,192,196,200,206,211,216,221,226,231,236,241,246,252,256,261,267,271,276,281,286,292,296,301,306,311,316,320,326,331,335,341,346,351,356,361,366,371,375,381,386,392,396,401,407,411","82","easy","","","","","",""
"","mousetracking","77","47023","0.0-4.0-1.9","506","","","","","<div style=""font-size:60px;"">+</div>","","","fixation","FIX",",526,526,526,526,526,526,526,526,526,526,526,526,526,526,526,526,526,526,526,526,526,526,526,526,526,526,526,526,526,526,526,526,526,526,526,526,526,526,526,526,526,526,526,526,526,526,526,526,526,526,526,526,526,526,526,526,526,526,526,526,526,526,526,526,526,526,526,526,526,526,526,526,526,526,526,526,526,526,526,526,526,526,526,526,526,526,526,526,526,526,526,526,526,526,526,526,526,526,526,526,526",",318,318,318,318,318,318,318,318,318,318,318,318,318,318,318,318,318,318,318,318,318,318,318,318,318,318,318,318,318,318,318,318,318,318,318,318,318,318,318,318,318,318,318,318,318,318,318,318,318,318,318,318,318,318,318,318,318,318,318,318,318,318,318,318,318,318,318,318,318,318,318,318,318,318,318,318,318,318,318,318,318,318,318,318,318,318,318,318,318,318,318,318,318,318,318,318,318,318,318,318,318","0,6,11,15,21,26,30,36,41,45,51,56,60,66,71,75,81,86,90,96,101,105,111,116,120,126,131,135,141,146,150,156,160,166,171,175,181,186,190,196,200,206,211,215,221,226,230,236,241,245,251,256,260,266,271,275,281,285,290,296,300,306,311,315,321,326,330,336,341,345,351,356,360,366,371,375,381,386,390,396,400,406,411,415,420,426,430,436,441,445,451,456,460,466,470,476,481,486,491,495,501,506","101","easy","","","","","",""
"","mousetracking","78","47759","0.0-4.0-2.9","735","","","","","<div style=""font-size:60px;"">+</div>","","","delay","FIX",",526,526,526,526,526,526,526,526,526,526,526,526,526,526,526,526,526,526,526,526,526,526,526,526,526,526,526,526,526,526,526,526,526,526,526,526,526,526,526,526,526,526,526,526,526,526,526,526,526,526,526,526,526,526,526,526,526,526,526,526,526,526,526,526,526,526,526,526,526,526,526,526,526,526,526,526,526,526,526,526,526,526,526,526,526,526,526,526,526,526,526,526,526,526,526,526,526,526,526,526,526,526,526,526,526,526,526,526,526,526,526,526,526,526,526,526,526,526,526,526,526,526,526,526,526,526,526,526,526,526,526,526,526,526,526,526,526,526,526,526,526,526,526,526,526,526",",318,318,318,318,318,318,318,318,318,318,318,318,318,318,318,318,318,318,318,318,318,318,318,318,318,318,318,318,318,318,318,318,318,318,318,318,318,318,318,318,318,318,318,318,318,318,318,318,318,318,318,318,318,318,318,318,318,318,318,318,318,318,318,318,318,318,318,318,318,318,318,318,318,318,318,318,318,318,318,318,318,318,318,318,318,318,318,318,318,318,318,318,318,318,318,318,318,318,318,318,318,318,318,318,318,318,318,318,318,318,318,318,318,318,318,318,318,318,318,318,318,318,318,318,318,318,318,318,318,318,318,318,318,318,318,318,318,318,318,318,318,318,318,318,318,318","0,5,11,16,21,26,31,36,41,47,51,56,60,66,71,75,81,86,90,96,101,107,111,116,122,126,131,135,141,146,150,156,161,166,171,175,181,186,190,196,201,206,211,216,220,226,231,235,241,246,251,256,261,266,271,275,281,286,290,296,301,306,311,316,321,326,331,336,340,346,351,355,361,366,371,376,380,386,391,395,401,406,410,416,421,426,431,435,441,446,451,456,460,466,471,475,481,486,490,496,501,506,511,516,521,526,530,536,541,546,551,556,561,566,571,576,581,587,591,596,601,606,611,615,621,626,630,636,641,646,651,655,661,666,670,676,681,686,691,696,701,706,711,716,721,726,731","146","easy","","","","","",""
"","mousetracking","79","47849","0.0-4.0-3.9","88","","","","","<div style=""font-size:60px;"">+</div>","","","rt_catch","FIX",",526,526,526,526,526,526,526,526,526,526,526,526,526,526,526,526,526",",318,318,318,318,318,318,318,318,318,318,318,318,318,318,318,318,318","0,6,12,16,21,26,31,36,41,46,51,56,61,66,71,75,81,86","17","easy","","","","","",""
"","mousetracking","80","48198","0.0-4.0-4.9","348","","","","","<div style=""font-size:60px;"">+</div>","","","rt_window","HIT",",526,526,526,526,526,526,526,526,526,526,526,526,526,526,526,526,526,526,526,526,526,526,526,526,526,526,526,526,526,526,526,526,526,526,526,526,526,526,526,526,526,526,526,526,526,526,526,526,526,526,526,526,526,526,526,526,526,526,526,526,526,526,526,526,526,526,526,526,526",",318,318,318,318,318,318,318,318,318,318,318,318,318,318,318,318,318,318,318,318,318,318,318,318,318,318,318,318,318,318,318,318,318,318,318,318,318,318,318,318,318,318,318,318,318,318,318,318,318,318,318,318,318,318,318,318,318,318,318,318,318,318,318,318,318,318,318,318,318","0,5,11,15,20,26,30,35,40,45,51,55,60,66,70,75,81,85,91,95,100,106,110,115,121,125,131,135,140,146,150,155,161,165,171,175,180,186,190,195,201,205,211,215,220,226,231,235,240,245,251,255,260,265,271,276,280,285,291,296,300,306,310,315,320,326,330,335,340,345","69","easy","","","","","",""
"","mousetracking","81","48324","0.0-4.0-5.9","125","","","","","<div style=""font-size:60px;"">+</div>","","","decision","ACQUIRE_TARG",",,,584,584,584,584,584,584,584,584,584,584,584,584,584,584,584,584,584,584,584,584,676,676",",,,238,238,238,238,238,238,238,238,238,238,238,238,238,238,238,238,238,238,238,238,129,129","0,6,10,15,21,25,31,35,40,46,51,56,61,65,70,76,80,85,90,96,101,106,110,115,120","24","easy","","","","","",""
"","mousetracking","82","48587","0.0-4.0-6.9","263","","","","","<div style=""font-size:60px;"">+</div>","","","targer_hold","SUCCESS",",,678,678,678,678,678,678,678,678,678,678,678,678,678,678,678,678,678,678,678,678,678,678,678,678,678,678,678,678,678,678,678,678,678,678,678,678,678,678,678,678,678,678,678,678,678,678,678,678,678,678,678",",,126,126,126,126,126,126,126,126,126,126,126,126,126,126,126,126,126,126,126,126,126,126,126,126,126,126,126,126,126,126,126,126,126,126,126,126,126,126,126,126,126,126,126,126,126,126,126,126,126,126,126","0,6,11,16,20,25,31,36,41,46,51,55,61,66,71,75,81,86,91,96,101,106,110,116,121,126,130,136,141,146,151,156,161,167,171,176,180,186,191,196,201,206,210,216,221,226,230,236,241,246,251,256,261","52","","20","","","","",""
"","html-keyboard-response","83","49588","0.0-4.0-7.9","null","","","","","<p style=color:green;>SUCCESS! + 20 points</p> SCORE: 120, Trial number: 5","null","","feedback","","","","","","easy","20","210","50","273.22330470336317,103.22330470336314","SUCCESS!",""
"","mousetracking","84","49895","0.0-4.0-0.10","306","","","","","<div style=""font-size:60px;"">+</div>","","","ITI","FIX",",532,532,532,532,532,532,532,532,532,532,532,532,532,532,532,532,532,532,532,532,532,532,532,532,532,532,532,532,532,532,532,532,532,532,532,532,532,532,532,532,532,532,532,532,532,532,532,532,532,532,532,532,532,532,532,532,532,532,532,532,532",",289,289,289,289,289,289,289,289,289,289,289,289,289,289,289,289,289,289,289,289,289,289,289,289,289,289,289,289,289,289,289,289,289,289,289,289,289,289,289,289,289,289,289,289,289,289,289,289,289,289,289,289,289,289,289,289,289,289,289,289,289","0,6,11,16,21,26,31,35,41,45,51,56,61,66,71,76,81,87,91,96,102,106,111,115,121,126,130,136,141,146,151,155,161,166,170,176,181,186,191,196,201,206,210,216,221,227,231,236,241,246,251,256,261,267,271,276,281,286,291,295,301,306","61","easy","","","","","",""
"","mousetracking","85","50403","0.0-4.0-1.10","507","","","","","<div style=""font-size:60px;"">+</div>","","","fixation","FIX",",532,532,532,532,532,532,532,532,532,532,532,532,532,532,532,532,532,532,532,532,532,532,532,532,532,532,532,532,532,532,532,532,532,532,532,532,532,532,532,532,532,532,532,532,532,532,532,532,532,532,532,532,532,532,532,532,532,532,532,532,532,532,532,532,532,532,532,532,532,532,532,532,532,532,532,532,532,532,532,532,532,532,532,532,532,532,532,532,532,532,532,532,532,532,532,532,532,532,532,532,532",",289,289,289,289,289,289,289,289,289,289,289,289,289,289,289,289,289,289,289,289,289,289,289,289,289,289,289,289,289,289,289,289,289,289,289,289,289,289,289,289,289,289,289,289,289,289,289,289,289,289,289,289,289,289,289,289,289,289,289,289,289,289,289,289,289,289,289,289,289,289,289,289,289,289,289,289,289,289,289,289,289,289,289,289,289,289,289,289,289,289,289,289,289,289,289,289,289,289,289,289,289","0,6,12,16,21,25,31,36,40,46,50,56,61,66,71,75,81,85,91,96,101,106,111,115,121,126,131,136,140,146,151,155,161,166,171,176,181,185,191,196,200,206,211,215,220,226,232,235,241,246,251,256,261,266,271,275,281,286,291,295,301,305,311,316,321,325,330,336,340,346,351,355,361,365,371,375,381,386,390,395,401,406,411,415,421,426,431,435,441,446,451,455,461,465,471,476,481,486,490,496,500,506","101","easy","","","","","",""
"","mousetracking","86","51202","0.0-4.0-2.10","798","","","","","<div style=""font-size:60px;"">+</div>","","","delay","FIX",",,530,530,530,530,530,530,530,530,530,530,530,530,530,530,530,530,530,530,530,530,530,530,530,530,530,530,530,530,530,530,530,530,530,530,530,530,530,530,530,530,530,530,530,530,530,530,530,530,530,530,530,530,530,530,530,530,530,530,530,530,530,530,530,530,530,530,530,530,530,530,530,530,530,530,530,530,530,530,530,530,530,530,530,530,530,530,530,530,530,530,530,530,530,530,530,530,530,530,530,530,530,530,530,530,530,530,530,530,530,530,530,530,530,530,530,530,530,530,530,530,530,530,530,530,530,530,530,530,530,530,530,530,530,530,530,530,530,530,530,530,530,530,530,530,530,530,530,530,530,530,530,530,530,530,530,530,530,530",",,297,297,297,297,297,297,297,297,297,297,297,297,297,297,297,297,297,297,297,297,297,297,297,297,297,297,297,297,297,297,297,297,297,297,297,297,297,297,297,297,297,297,297,297,297,297,297,297,297,297,297,297,297,297,297,297,297,297,297,297,297,297,297,297,297,297,297,297,297,297,297,297,297,297,297,297,297,297,297,297,297,297,297,297,297,297,297,297,297,297,297,297,297,297,297,297,297,297,297,297,297,297,297,297,297,297,297,297,297,297,297,297,297,297,297,297,297,297,297,297,297,297,297,297,297,297,297,297,297,297,297,297,297,297,297,297,297,297,297,297,297,297,297,297,297,297,297,297,297,297,297,297,297,297,297,297,297,297","0,6,11,15,20,26,30,36,41,45,51,55,61,66,70,76,80,86,91,96,101,106,110,116,121,125,131,136,141,145,151,156,160,166,171,176,180,186,191,195,201,206,210,216,221,225,231,236,240,245,251,255,261,266,270,276,281,286,291,295,301,306,311,316,320,326,331,335,341,346,350,356,361,365,371,376,380,386,391,396,401,405,411,416,420,426,431,435,441,446,450,456,461,466,471,476,480,486,491,495,501,506,511,516,520,526,531,535,541,546,551,556,560,566,571,575,580,586,590,596,601,605,611,616,620,626,630,636,641,645,651,656,661,665,671,676,680,686,690,696,700,706,710,716,720,726,730,736,740,746,750,756,761,765,771,776,780,786,791,795","159","easy","","","","","",""
"","mousetracking","87","51289","0.0-4.0-3.10","86","","","","","<div style=""font-size:60px;"">+</div>","","","rt_catch","FIX",",521,521,521,521,521,521,521,521,521,521,521,521,521,521,521,521,521",",296,296,296,296,296,296,296,296,296,296,296,296,296,296,296,296,296","0,6,10,16,20,25,31,35,40,46,50,55,61,65,70,76,80,86","17","easy","","","","","",""
"","mousetracking","88","51666","0.0-4.0-4.10","376","","","","","<div style=""font-size:60px;"">+</div>","","","rt_window","MISSED",",521,521,521,521,521,521,521,521,521,521,521,521,521,521,521,521,521,521,521,521,521,521,521,521,521,521,521,521,521,521,521,521,521,521,521,521,521,521,521,521,521,521,521,521,521,521,521,521,521,521,521,521,521,521,521,521,521,521,521,521,521,521,521,521,521,521,521,521,521,521,521,521,521,521",",296,296,296,296,296,296,296,296,296,296,296,296,296,296,296,296,296,296,296,296,296,296,296,296,296,296,296,296,296,296,296,296,296,296,296,296,296,296,296,296,296,296,296,296,296,296,296,296,296,296,296,296,296,296,296,296,296,296,296,296,296,296,296,296,296,296,296,296,296,296,296,296,296,296","0,6,11,16,21,25,31,36,40,46,51,55,61,66,71,76,80,86,91,96,101,105,111,116,120,126,131,135,141,146,151,156,160,166,171,175,181,186,191,196,201,206,211,216,221,225,231,236,240,246,252,256,261,266,271,276,281,286,291,296,301,306,311,315,321,326,331,336,340,346,351,355,361,366,371","74","easy","","","","","",""
"","mousetracking","89","52076","0.0-4.0-5.10","null","","","","","<div style=""font-size:60px;"">+</div>","","","decision","WRONG_TARG",",522,522,522,522,522,522,522,522,522,522,522,522,522,522,522,522,522,522,522,522,522,522,522,522,522,522,522,522,522,522,522,522,522,522,522,522,522,522,522,522,522,522,522,522,522,522,522,522,522,522,522,522,522,522,522,496,496,496,496,496,496,496,496,496,496,496,496,496,496,496,496,496,496,496,496,496,496,496,496,496,496",",296,296,296,296,296,296,296,296,296,296,296,296,296,296,296,296,296,296,296,296,296,296,296,296,296,296,296,296,296,296,296,296,296,296,296,296,296,296,296,296,296,296,296,296,296,296,296,296,296,296,296,296,296,296,296,282,282,282,282,282,282,282,282,282,282,282,282,282,282,282,282,282,282,282,282,282,282,282,282,282,282","0,6,11,16,22,26,31,37,41,47,51,56,62,66,72,76,82,86,91,97,101,107,111,116,120,126,132,136,141,147,151,156,161,166,172,176,181,187,191,196,201,206,212,216,221,226,231,237,241,246,251,256,261,267,272,276,281,287,291,296,301,307,311,316,321,326,331,336,341,346,351,356,362,367,371,376,380,387,391,396,401,406","81","easy","","","","","",""
"","mousetracking","90","52428","0.0-4.0-6.10","null","","","","","<div style=""font-size:60px;"">+</div>","","","targer_hold","Timeout",",348,348,348,348,348,348,348,348,348,348,348,348,348,348,348,348,348,348,348,348,348,348,348,348,348,348,348,348,348,348,348,348,348,348,348,348,348,348,348,348,348,348,348,348,348,348,348,348,348,348,347,347,347,347,347,347,347,347,347,347,347,347,347,347,347,347,347,347,347,347",",165,165,165,165,165,165,165,165,165,165,165,165,165,165,165,165,165,165,165,165,165,165,165,165,165,165,165,165,165,165,165,165,165,165,165,165,165,165,165,165,165,165,165,165,165,165,165,165,165,165,157,157,157,157,157,157,157,157,157,157,157,157,157,157,157,157,157,157,157,157","0,5,10,16,20,25,30,35,40,46,51,55,61,65,70,76,80,86,91,95,101,105,111,116,120,126,130,135,141,145,151,156,160,166,170,175,181,185,191,195,200,205,211,215,220,225,231,235,241,246,251,256,260,266,270,276,280,286,290,295,300,305,310,316,320,325,330,336,340,346,351","70","","20","","","","",""
"","html-keyboard-response","91","53429","0.0-4.0-7.10","null","","","","","<p style=color:red;>TOO SLOW - 20 points</p> SCORE: 100, Trial number: 6","null","","feedback","","","","","","easy","20","230","50","626.7766952966368,103.22330470336314","MISSED",""
"","mousetracking","92","53736","0.0-4.0-0.11","306","","","","","<div style=""font-size:60px;"">+</div>","","","ITI","FIX",",519,519,519,519,519,519,519,519,519,519,519,519,519,519,519,519,519,519,519,519,519,519,519,519,519,519,519,519,519,519,519,519,519,519,519,519,519,519,519,519,519,519,519,519,519,519,519,519,519,519,519,519,519,519,519,519,519,519,519,519,519",",303,303,303,303,303,303,303,303,303,303,303,303,303,303,303,303,303,303,303,303,303,303,303,303,303,303,303,303,303,303,303,303,303,303,303,303,303,303,303,303,303,303,303,303,303,303,303,303,303,303,303,303,303,303,303,303,303,303,303,303,303","0,5,11,15,21,26,30,36,41,46,50,56,61,66,71,75,81,86,90,96,101,105,110,116,120,126,131,135,141,146,150,156,161,166,171,175,181,185,191,195,201,206,210,216,221,226,230,236,241,246,250,256,261,266,271,275,281,286,290,296,301,306","61","easy","","","","","",""
"","mousetracking","93","54253","0.0-4.0-1.11","516","","","","","<div style=""font-size:60px;"">+</div>","","","fixation","FIX",",,524,524,524,524,524,524,524,524,524,524,524,524,524,524,524,524,524,524,524,524,524,524,524,524,524,524,524,524,524,524,524,524,524,524,524,524,524,524,524,524,524,524,524,524,524,524,524,524,524,524,524,524,524,524,524,524,524,524,524,524,524,524,524,524,524,524,524,524,524,524,524,524,524,524,524,524,524,524,524,524,524,524,524,524,524,524,524,524,524,524,524,524,524,524,524,524,524,524,524,524,524",",,303,303,303,303,303,303,303,303,303,303,303,303,303,303,303,303,303,303,303,303,303,303,303,303,303,303,303,303,303,303,303,303,303,303,303,303,303,303,303,303,303,303,303,303,303,303,303,303,303,303,303,303,303,303,303,303,303,303,303,303,303,303,303,303,303,303,303,303,303,303,303,303,303,303,303,303,303,303,303,303,303,303,303,303,303,303,303,303,303,303,303,303,303,303,303,303,303,303,303,303,303","0,6,10,15,21,25,31,36,41,45,51,55,60,66,71,76,81,85,91,95,100,106,111,116,121,125,131,135,140,146,151,156,161,165,171,175,181,186,190,196,201,205,211,215,221,226,231,236,240,246,251,255,261,266,271,276,280,286,291,295,301,305,311,316,320,326,330,336,341,345,351,356,360,366,371,375,381,385,391,396,400,406,411,415,421,426,431,436,440,446,451,455,461,466,471,476,481,485,491,495,500,506,511","102","easy","","","","","",""
"","mousetracking","94","54994","0.0-4.0-2.11","739","","","","","<div style=""font-size:60px;"">+</div>","","","delay","FIX",",524,524,524,524,524,524,524,524,524,524,524,524,524,524,524,524,524,524,524,524,524,524,524,524,524,524,524,524,524,524,524,524,524,524,524,524,524,524,524,524,524,524,524,524,524,524,524,524,524,524,524,524,524,524,524,524,524,524,524,524,524,524,524,524,524,524,524,524,524,524,524,524,524,524,524,524,524,524,524,524,524,524,524,524,524,524,524,524,524,524,524,524,524,524,524,524,524,524,524,524,524,524,524,524,524,524,524,524,524,524,524,524,524,524,524,524,524,524,524,524,524,524,524,524,524,524,524,524,524,524,524,524,524,524,524,524,524,524,524,524,524,524,524,524,524,524,524",",303,303,303,303,303,303,303,303,303,303,303,303,303,303,303,303,303,303,303,303,303,303,303,303,303,303,303,303,303,303,303,303,303,303,303,303,303,303,303,303,303,303,303,303,303,303,303,303,303,303,303,303,303,303,303,303,303,303,303,303,303,303,303,303,303,303,303,303,303,303,303,303,303,303,303,303,303,303,303,303,303,303,303,303,303,303,303,303,303,303,303,303,303,303,303,303,303,303,303,303,303,303,303,303,303,303,303,303,303,303,303,303,303,303,303,303,303,303,303,303,303,303,303,303,303,303,303,303,303,303,303,303,303,303,303,303,303,303,303,303,303,303,303,303,303,303,303","0,5,11,16,20,25,30,35,41,45,51,55,60,66,70,75,80,85,91,95,100,106,110,115,120,125,131,135,140,146,150,156,160,166,170,176,180,185,191,195,200,206,210,215,220,225,231,235,240,246,250,255,260,265,271,275,281,285,291,296,300,306,310,315,321,325,331,336,340,346,350,355,361,365,371,375,380,386,390,395,401,405,411,415,420,426,430,435,441,445,451,455,460,466,470,475,481,485,491,496,500,506,510,515,521,525,531,536,540,546,550,555,561,565,571,576,580,586,590,595,601,605,611,615,620,626,630,635,640,645,651,655,660,666,670,675,680,685,691,695,701,705,711,716,720,725,731,735","147","easy","","","","","",""
"","mousetracking","95","55083","0.0-4.0-3.11","87","","","","","<div style=""font-size:60px;"">+</div>","","","rt_catch","FIX",",524,524,524,524,524,524,524,524,524,524,524,524,524,524,524,524,524",",303,303,303,303,303,303,303,303,303,303,303,303,303,303,303,303,303","0,6,11,15,21,26,31,36,41,46,51,56,61,66,72,76,81,86","17","easy","","","","","",""
"","mousetracking","96","55364","0.0-4.0-4.11","279","","","","","<div style=""font-size:60px;"">+</div>","","","rt_window","HIT",",524,524,524,524,524,524,524,524,524,524,524,524,524,524,524,524,524,524,524,524,524,524,524,524,524,524,524,524,524,524,524,524,524,524,524,524,524,524,524,524,524,524,524,524,524,524,524,524,524,524,524,524,524,524,524",",303,303,303,303,303,303,303,303,303,303,303,303,303,303,303,303,303,303,303,303,303,303,303,303,303,303,303,303,303,303,303,303,303,303,303,303,303,303,303,303,303,303,303,303,303,303,303,303,303,303,303,303,303,303,303","0,5,11,16,20,26,31,35,41,46,51,56,61,66,71,76,81,85,91,95,100,106,110,115,121,125,131,136,140,146,151,155,161,165,171,176,180,186,190,195,201,205,211,215,221,225,230,235,241,245,251,255,261,266,271,275","55","easy","","","","","",""
