"success","trial_type","trial_index","time_elapsed","internal_node_id","rt","responses","partNum","view_history","time","stimulus","key_press","trial_status","epoch","choice","x-position","y-position","mice-times","nRecordings","block","reward","change_hue","target_size","location","outcome","response"
"true","fullscreen","0","2238","0.0-0.0","","","","","","","","","","","","","","","","","","","","",""
"","survey-text","1","17605","0.0-1.0","15366","{""Q0"":""adi_20241019_session1""}","""adi_20241019_session1""","","","","","","","","","","","","","","","","","",""
"","instructions","2","22947","0.0-2.0","5341","","","[{""page_index"":0,""viewing_time"":756},{""page_index"":1,""viewing_time"":1742},{""page_index"":2,""viewing_time"":1726},{""page_index"":3,""viewing_time"":526},{""page_index"":4,""viewing_time"":590}]","Sat Oct 19 2024 21:52:14 GMT-0400 (Eastern Daylight Time)","","","","","","","","","","","","","","","",""
"","html-keyboard-response","3","24430","0.0-3.0-0.0","1480","","","","","EASY BLOCK <br> To Start/Continue, press y <br> To end the session, press n","89","continue_flag","","","","","","","","","","","","",""
"","mousetracking","4","25284","0.0-4.0-0.0","852","","","","","<div style=""font-size:60px;"">+</div>","","","ITI","FIX",",516,516,516,516,516,516,516,516,516,516,516,516,516,516,516,516,516,516,516,516,516,516,516,516,516,516,516,516,516,516,516,516,516,516,516,516,516,516,516,516,516,516,516,516,516,516,516,516,516,516,516,516,516,516,516,516,516,516,516,516,516,516,516,516,516,516,516,516,516,516,516,516,516,516,516,516,516,516,516,516,516,516,516,516,516,516,516,516,516,516,516,516,516,516,516,516,516,516,516,516,516,516,516,516,516,516,516,516,521,521,521,521,521,521,521,521,521,521,521,521,521,521,521,521,521,521,521,521,521,521,521,521,521,521,521,521,521,521,521,521,521,521,521,521,521,521,521,521,521,521,521,521,521,521,521,521,521,521,521,521,521,521,521,521,521,521,521,521,521,521",",331,331,331,331,331,331,331,331,331,331,331,331,331,331,331,331,331,331,331,331,331,331,331,331,331,331,331,331,331,331,331,331,331,331,331,331,331,331,331,331,331,331,331,331,331,331,331,331,331,331,331,331,331,331,331,331,331,331,331,331,331,331,331,331,331,331,331,331,331,331,331,331,331,331,331,331,331,331,331,331,331,331,331,331,331,331,331,331,331,331,331,331,331,331,331,331,331,331,331,331,331,331,331,331,331,331,331,331,322,322,322,322,322,322,322,322,322,322,322,322,322,322,322,322,322,322,322,322,322,322,322,322,322,322,322,322,322,322,322,322,322,322,322,322,322,322,322,322,322,322,322,322,322,322,322,322,322,322,322,322,322,322,322,322,322,322,322,322,322,322","0,6,11,16,22,26,32,36,41,47,51,57,61,66,71,76,81,86,91,97,101,106,112,116,122,126,131,136,141,146,151,157,161,167,171,176,181,186,191,196,202,206,211,216,221,227,231,237,241,247,251,257,261,267,271,276,282,286,291,297,301,307,311,316,321,326,331,337,341,347,351,356,361,367,371,376,382,386,392,396,401,406,411,417,421,426,432,436,441,447,451,457,461,466,471,476,481,487,491,496,500,506,512,517,521,527,531,536,541,547,551,556,561,566,572,576,581,586,591,596,600,606,611,616,621,626,632,636,641,646,651,655,661,666,671,675,681,686,692,696,701,706,711,715,721,726,731,736,741,746,751,755,761,766,771,776,781,786,791,796,801,806,812,816,821,826,831,836,841,846,851","170","easy","","","","","",""
"","mousetracking","5","25789","0.0-4.0-1.0","504","","","","","<div style=""font-size:60px;"">+</div>","","","fixation","FIX",",529,529,529,529,529,529,529,529,529,529,529,529,529,529,529,529,529,529,529,529,529,529,529,529,529,529,529,529,529,529,529,529,529,529,529,529,529,529,529,529,529,529,529,529,529,529,529,529,529,529,529,529,529,529,529,529,529,529,529,529,529,529,529,529,529,529,529,529,529,529,529,529,529,529,529,529,529,529,529,529,529,529,529,529,529,529,529,529,529,529,529,529,529,529,529,529,529,529,529,529",",312,312,312,312,312,312,312,312,312,312,312,312,312,312,312,312,312,312,312,312,312,312,312,312,312,312,312,312,312,312,312,312,312,312,312,312,312,312,312,312,312,312,312,312,312,312,312,312,312,312,312,312,312,312,312,312,312,312,312,312,312,312,312,312,312,312,312,312,312,312,312,312,312,312,312,312,312,312,312,312,312,312,312,312,312,312,312,312,312,312,312,312,312,312,312,312,312,312,312,312","0,6,11,16,22,26,32,37,41,47,51,56,62,66,72,77,81,87,91,96,102,106,111,115,121,126,131,136,142,146,151,156,161,166,172,176,181,186,191,196,201,206,212,216,221,226,231,236,241,246,252,256,261,267,271,276,281,286,292,296,301,306,311,316,321,326,332,336,341,347,351,356,361,366,371,376,381,386,391,396,401,406,412,416,421,426,431,436,441,446,452,456,461,467,471,476,481,486,492,496,501","100","easy","","","","","",""
"","mousetracking","6","26822","0.0-4.0-2.0","1032","","","","","<div style=""font-size:60px;"">+</div>","","","delay","FIX",",529,529,529,529,529,529,529,529,529,529,529,529,529,529,529,529,529,529,529,529,529,529,529,529,529,529,529,529,529,529,529,529,529,529,529,529,529,529,529,529,529,529,529,529,529,529,529,529,529,529,529,529,529,529,529,529,529,529,529,529,529,529,529,529,529,529,529,529,529,529,529,529,529,529,529,529,529,529,529,529,529,529,529,529,529,529,529,529,529,529,529,529,529,529,529,529,529,529,529,529,529,529,529,529,529,529,529,529,529,529,529,529,529,529,529,529,529,529,529,529,529,529,529,529,529,529,529,529,529,529,529,529,529,529,529,529,529,529,529,529,529,529,529,529,529,529,529,529,529,529,529,529,529,529,529,529,529,529,529,529,529,529,529,529,529,529,529,529,529,529,529,529,529,529,529,529,529,529,529,529,529,529,529,529,529,529,529,529,529,529,529,529,529,529,529,529,529,529,529,529,529,529,529,529,529,529",",312,312,312,312,312,312,312,312,312,312,312,312,312,312,312,312,312,312,312,312,312,312,312,312,312,312,312,312,312,312,312,312,312,312,312,312,312,312,312,312,312,312,312,312,312,312,312,312,312,312,312,312,312,312,312,312,312,312,312,312,312,312,312,312,312,312,312,312,312,312,312,312,312,312,312,312,312,312,312,312,312,312,312,312,312,312,312,312,312,312,312,312,312,312,312,312,312,312,312,312,312,312,312,312,312,312,312,312,312,312,312,312,312,312,312,312,312,312,312,312,312,312,312,312,312,312,312,312,312,312,312,312,312,312,312,312,312,312,312,312,312,312,312,312,312,312,312,312,312,312,312,312,312,312,312,312,312,312,312,312,312,312,312,312,312,312,312,312,312,312,312,312,312,312,312,312,312,312,312,312,312,312,312,312,312,312,312,312,312,312,312,312,312,312,312,312,312,312,312,312,312,312,312,312,312,312","0,6,12,16,21,26,31,36,41,46,51,56,61,66,71,76,81,86,91,96,101,106,111,115,121,126,131,136,142,146,151,157,161,167,171,176,182,186,191,197,201,207,212,216,221,226,231,237,241,247,251,256,262,266,271,277,281,286,292,296,301,306,311,316,321,326,331,336,341,346,352,356,361,367,371,376,381,386,392,396,401,407,411,416,421,426,431,436,441,447,451,456,462,466,472,476,481,487,491,496,501,506,512,516,521,527,531,536,542,546,551,557,561,566,571,576,581,586,591,596,601,606,612,616,621,626,631,637,641,646,652,656,661,666,671,677,681,687,691,696,701,706,711,716,721,726,731,736,742,746,751,756,761,767,771,776,781,786,792,796,801,807,811,816,821,826,832,836,841,847,851,856,861,866,872,876,881,887,891,896,901,906,912,916,921,927,931,936,942,946,951,956,961,967,971,976,981,986,992,996,1001,1007,1011,1016,1021,1026,1032","206","easy","","","","","",""
"","mousetracking","7","26911","0.0-4.0-3.0","87","","","","","<div style=""font-size:60px;"">+</div>","","","rt_catch","FIX",",529,529,529,529,529,529,529,529,529,529,529,529,529,529,529,529,529",",312,312,312,312,312,312,312,312,312,312,312,312,312,312,312,312,312","0,6,12,16,21,27,31,36,41,46,52,56,61,67,71,76,81,86","17","easy","","","","","",""
"","mousetracking","8","27243","0.0-4.0-4.0","331","","","","","<div style=""font-size:60px;"">+</div>","","","rt_window","HIT",",529,529,529,529,529,529,529,529,529,529,529,529,529,529,529,529,529,529,529,529,529,529,529,529,529,529,529,529,529,529,529,529,529,529,529,529,529,529,529,529,529,529,529,529,529,529,529,529,529,529,529,529,529,529,529,529,529,529,529,529,529,529,529,529,529",",312,312,312,312,312,312,312,312,312,312,312,312,312,312,312,312,312,312,312,312,312,312,312,312,312,312,312,312,312,312,312,312,312,312,312,312,312,312,312,312,312,312,312,312,312,312,312,312,312,312,312,312,312,312,312,312,312,312,312,312,312,312,312,312,312","0,6,10,15,21,25,31,35,40,46,50,56,61,65,71,75,80,86,91,95,101,105,111,116,120,126,130,135,141,145,151,155,160,166,170,175,181,186,191,195,200,206,210,215,221,225,231,236,240,246,250,255,261,265,271,275,280,286,290,295,301,306,310,315,321,325","65","easy","","","","","",""
"","mousetracking","9","27438","0.0-4.0-5.0","193","","","","","<div style=""font-size:60px;"">+</div>","","","decision","ACQUIRE_TARG",",,,,504,504,504,504,504,504,504,504,504,504,504,504,504,504,504,504,504,504,504,504,504,504,504,504,504,504,504,504,504,504,504,504,504,368,368",",,,,335,335,335,335,335,335,335,335,335,335,335,335,335,335,335,335,335,335,335,335,335,335,335,335,335,335,335,335,335,335,335,335,335,468,468","0,5,11,15,20,26,31,35,41,46,51,56,61,65,70,76,81,86,90,96,101,106,111,116,121,126,131,136,141,146,150,156,161,166,170,175,181,186,190","38","easy","","","","","",""
"","mousetracking","10","27697","0.0-4.0-6.0","258","","","","","<div style=""font-size:60px;"">+</div>","","","targer_hold","SUCCESS",",365,365,365,365,365,365,365,365,365,365,365,365,365,365,365,365,365,365,365,365,365,365,365,365,365,365,365,365,365,365,365,365,365,365,365,365,365,365,365,365,365,365,365,365,365,365,365,365,365,365,365",",469,469,469,469,469,469,469,469,469,469,469,469,469,469,469,469,469,469,469,469,469,469,469,469,469,469,469,469,469,469,469,469,469,469,469,469,469,469,469,469,469,469,469,469,469,469,469,469,469,469,469","0,6,11,16,21,26,31,36,41,46,51,56,61,66,72,76,81,86,92,96,101,105,111,116,122,126,131,136,140,146,151,156,161,166,171,176,180,186,191,197,201,206,212,216,221,227,231,236,240,246,251,257","51","","20","","","","",""
"","html-keyboard-response","11","28701","0.0-4.0-7.0","null","","","","","<p style=color:green;>SUCCESS! + 20 points</p> SCORE: 20, Trial number: 1","null","","feedback","","","","","","easy","20","210","50","626.7766952966368,456.77669529663683","SUCCESS!",""
"","mousetracking","12","29016","0.0-4.0-0.1","312","","","","","<div style=""font-size:60px;"">+</div>","","","ITI","FIX",",,524,524,524,524,524,524,524,524,524,524,524,524,524,524,524,524,524,524,524,524,524,524,524,524,524,524,524,524,524,524,524,524,524,524,524,524,524,524,524,524,524,524,524,524,524,524,524,524,524,524,524,524,524,524,524,524,524,524,524,524,524",",,307,307,307,307,307,307,307,307,307,307,307,307,307,307,307,307,307,307,307,307,307,307,307,307,307,307,307,307,307,307,307,307,307,307,307,307,307,307,307,307,307,307,307,307,307,307,307,307,307,307,307,307,307,307,307,307,307,307,307,307,307","0,6,10,16,21,25,30,36,40,46,51,55,60,66,71,75,80,86,90,96,101,105,110,116,120,126,131,135,140,145,150,156,161,165,170,175,180,186,191,195,201,206,210,215,220,225,230,236,240,246,250,256,261,265,271,275,280,286,290,296,301,305,310","62","easy","","","","","",""
"","mousetracking","13","29523","0.0-4.0-1.1","506","","","","","<div style=""font-size:60px;"">+</div>","","","fixation","FIX",",524,524,524,524,524,524,524,524,524,524,524,524,524,524,524,524,524,524,524,524,524,524,524,524,524,524,524,524,524,524,524,524,524,524,524,524,524,524,524,524,524,524,524,524,524,524,524,524,524,524,524,524,524,524,524,524,524,524,524,524,524,524,524,524,524,524,524,524,524,524,524,524,524,524,524,524,524,524,524,524,524,524,524,524,524,524,524,524,524,524,524,524,524,524,524,524,524,524,524,524,524",",303,303,303,303,303,303,303,303,303,303,303,303,303,303,303,303,303,303,303,303,303,303,303,303,303,303,303,303,303,303,303,303,303,303,303,303,303,303,303,303,303,303,303,303,303,303,303,303,303,303,303,303,303,303,303,303,303,303,303,303,303,303,303,303,303,303,303,303,303,303,303,303,303,303,303,303,303,303,303,303,303,303,303,303,303,303,303,303,303,303,303,303,303,303,303,303,303,303,303,303,303","1,6,11,17,21,26,31,36,42,46,51,56,61,67,71,76,82,86,91,97,101,106,112,116,121,126,131,136,142,146,151,156,161,166,171,176,181,187,191,196,201,206,211,216,221,227,231,236,242,246,251,256,261,266,272,276,281,286,291,297,301,306,311,316,321,327,331,336,342,346,351,357,361,366,372,376,381,387,391,396,402,406,411,417,421,426,432,436,441,447,451,456,461,466,471,476,481,487,491,496,501,506","101","easy","","","","","",""
"","mousetracking","14","30073","0.0-4.0-2.1","549","","","","","<div style=""font-size:60px;"">+</div>","","","delay","FIX",",524,524,524,524,524,524,524,524,524,524,524,524,524,524,524,524,524,524,524,524,524,524,524,524,524,524,524,524,524,524,524,524,524,524,524,524,524,524,524,524,524,524,524,524,524,524,524,524,524,524,524,524,524,524,524,524,524,524,524,524,524,524,524,524,524,524,524,524,524,524,524,524,524,524,524,524,524,524,524,524,524,524,524,524,524,524,524,524,524,524,524,524,524,524,524,524,524,524,524,524,524,524,524,524,524,524,524,524,524",",303,303,303,303,303,303,303,303,303,303,303,303,303,303,303,303,303,303,303,303,303,303,303,303,303,303,303,303,303,303,303,303,303,303,303,303,303,303,303,303,303,303,303,303,303,303,303,303,303,303,303,303,303,303,303,303,303,303,303,303,303,303,303,303,303,303,303,303,303,303,303,303,303,303,303,303,303,303,303,303,303,303,303,303,303,303,303,303,303,303,303,303,303,303,303,303,303,303,303,303,303,303,303,303,303,303,303,303,303","0,6,10,16,20,26,30,35,41,46,51,56,60,66,71,75,81,86,90,96,101,105,111,116,120,126,130,135,141,145,151,156,160,166,170,175,181,186,191,195,201,205,211,216,221,225,231,236,240,246,251,256,260,266,271,275,280,286,290,295,301,305,311,315,320,326,330,335,341,345,351,356,360,366,370,375,381,385,391,396,400,406,411,415,420,426,431,435,440,445,451,455,460,466,470,476,481,485,491,496,500,506,511,515,521,525,531,536,540,546","109","easy","","","","","",""
"","mousetracking","15","30161","0.0-4.0-3.1","87","","","","","<div style=""font-size:60px;"">+</div>","","","rt_catch","FIX",",524,524,524,524,524,524,524,524,524,524,524,524,524,524,524,524,524",",303,303,303,303,303,303,303,303,303,303,303,303,303,303,303,303,303","0,6,11,15,21,26,31,35,41,46,51,56,60,66,71,75,81,86","17","easy","","","","","",""
"","mousetracking","16","30427","0.0-4.0-4.1","264","","","","","<div style=""font-size:60px;"">+</div>","","","rt_window","HIT",",524,524,524,524,524,524,524,524,524,524,524,524,524,524,524,524,524,524,524,524,524,524,524,524,524,524,524,524,524,524,524,524,524,524,524,524,524,524,524,524,524,524,524,524,524,524,524,524,524,524,524,524",",303,303,303,303,303,303,303,303,303,303,303,303,303,303,303,303,303,303,303,303,303,303,303,303,303,303,303,303,303,303,303,303,303,303,303,303,303,303,303,303,303,303,303,303,303,303,303,303,303,303,303,303","0,5,11,15,21,25,30,36,40,46,51,55,60,66,70,75,81,85,91,96,100,105,111,115,120,126,130,135,141,145,151,156,161,165,171,176,180,186,190,195,201,205,210,215,221,226,231,235,240,246,251,255,261","52","easy","","","","","",""
"","mousetracking","17","30828","0.0-4.0-5.1","null","","","","","<div style=""font-size:60px;"">+</div>","","","decision","WRONG_TARG",",,,,492,492,492,492,492,492,492,492,492,492,492,492,492,492,492,492,492,492,492,492,492,492,492,492,492,492,492,492,492,492,492,492,492,492,492,492,492,492,492,492,492,492,492,492,492,492,492,492,492,492,492,492,492,492,492,492,492,492,492,492,492,492,492,492,492,492,492,492,492,492,492,492,492,492,492,492,492",",,,,277,277,277,277,277,277,277,277,277,277,277,277,277,277,277,277,277,277,277,277,277,277,277,277,277,277,277,277,277,277,277,277,277,277,277,277,277,277,277,277,277,277,277,277,277,277,277,277,277,277,277,277,277,277,277,277,277,277,277,277,277,277,277,277,277,277,277,277,277,277,277,277,277,277,277,277,277","0,5,11,15,21,26,31,36,41,46,50,56,60,65,71,76,81,86,91,97,100,106,111,116,121,125,131,136,141,145,151,156,161,165,171,176,180,186,191,196,200,206,211,216,220,226,231,236,241,246,251,256,260,266,270,276,281,285,291,296,300,306,311,316,321,326,331,336,340,345,350,356,360,366,371,376,381,386,391,396,400","80","easy","","","","","",""
"","mousetracking","18","31113","0.0-4.0-6.1","283","","","","","<div style=""font-size:60px;"">+</div>","","","targer_hold","SUCCESS",",,,370,370,370,370,369,369,369,369,369,369,369,369,369,369,369,369,369,369,369,369,369,369,369,369,369,369,369,369,369,369,369,369,369,369,369,369,369,369,369,369,369,369,369,369,369,369,369,369,369,369,369,369,369,369",",,,148,148,148,148,147,147,147,147,147,147,147,147,147,147,147,147,147,147,147,147,147,147,147,147,147,147,147,147,147,147,147,147,147,147,147,147,147,147,147,147,147,147,147,147,147,147,147,147,147,147,147,147,147,147","0,6,10,16,20,26,30,36,40,45,51,55,61,65,71,75,81,85,91,95,100,106,110,116,121,125,131,135,140,146,150,156,161,165,171,175,180,186,190,196,201,205,211,216,220,226,230,235,241,245,250,256,260,265,271,275,280","56","","50","","","","",""
"","html-keyboard-response","19","32117","0.0-4.0-7.1","null","","","","","<p style=color:red;>REACH ERROR - 20 points</p> SCORE: 20, Trial number: 1","null","","feedback","","","","","","easy","50","220","50","626.7766952966368,103.22330470336314","REACH ERROR",""
"","mousetracking","20","32433","0.0-4.0-0.2","315","","","","","<div style=""font-size:60px;"">+</div>","","","ITI","FIX",",,521,521,521,521,521,521,521,521,521,521,521,521,521,521,521,521,521,521,521,521,521,521,521,521,521,521,521,521,521,521,521,521,521,521,521,521,521,521,521,521,521,521,521,521,521,521,521,521,521,521,521,521,521,521,521,521,521,521,521,521,521",",,298,298,298,298,298,298,298,298,298,298,298,298,298,298,298,298,298,298,298,298,298,298,298,298,298,298,298,298,298,298,298,298,298,298,298,298,298,298,298,298,298,298,298,298,298,298,298,298,298,298,298,298,298,298,298,298,298,298,298,298,298","0,6,11,16,21,26,31,37,41,46,51,56,61,66,72,76,81,86,91,96,101,106,111,115,121,126,131,136,141,146,151,156,161,166,171,176,181,187,191,196,202,206,211,216,221,226,231,236,241,247,251,256,261,266,271,276,281,286,291,296,301,307,311","62","easy","","","","","",""
"","mousetracking","21","32938","0.0-4.0-1.2","504","","","","","<div style=""font-size:60px;"">+</div>","","","fixation","FIX",",522,522,522,522,522,522,522,522,522,522,522,522,522,522,522,522,522,522,522,522,522,522,522,522,522,522,522,522,522,522,522,522,522,522,522,522,522,522,522,522,522,522,522,522,522,522,522,522,522,522,522,522,522,522,522,522,522,522,522,522,522,522,522,522,522,522,522,522,522,522,522,522,522,522,522,522,522,522,522,522,522,522,522,522,522,522,522,522,522,522,522,522,522,522,522,522,522,522,522,522",",297,297,297,297,297,297,297,297,297,297,297,297,297,297,297,297,297,297,297,297,297,297,297,297,297,297,297,297,297,297,297,297,297,297,297,297,297,297,297,297,297,297,297,297,297,297,297,297,297,297,297,297,297,297,297,297,297,297,297,297,297,297,297,297,297,297,297,297,297,297,297,297,297,297,297,297,297,297,297,297,297,297,297,297,297,297,297,297,297,297,297,297,297,297,297,297,297,297,297,297","0,5,11,15,21,26,31,36,40,46,50,55,61,65,71,75,81,85,91,96,100,106,111,115,121,126,131,136,140,146,151,155,161,166,171,176,180,186,191,195,200,206,211,216,220,226,231,235,241,246,251,256,261,265,271,276,280,286,291,295,301,305,311,316,320,326,331,335,341,346,351,356,361,366,371,375,381,386,391,396,401,406,411,415,421,426,431,436,440,446,451,455,460,466,470,475,481,485,491,496,500","100","easy","","","","","",""
"","mousetracking","22","34375","0.0-4.0-2.2","1436","","","","","<div style=""font-size:60px;"">+</div>","","","delay","FIX",",522,522,522,522,522,522,522,522,522,522,522,522,522,522,522,522,522,522,522,522,522,522,522,522,522,522,522,522,522,522,522,522,522,522,522,522,522,522,522,522,522,522,522,522,522,522,522,522,522,522,522,522,522,522,522,522,522,522,522,522,522,522,522,522,522,522,522,522,522,522,522,522,522,522,522,522,522,522,522,522,522,522,522,522,522,522,522,522,522,522,522,522,522,522,522,522,522,522,522,522,522,522,522,522,522,522,522,522,522,522,522,522,522,522,522,522,522,522,522,522,522,522,522,522,522,522,522,522,522,522,522,522,522,522,522,522,522,522,522,522,522,522,522,522,522,522,522,522,522,522,522,522,522,522,522,522,522,522,522,522,522,522,522,522,522,522,522,522,522,522,522,522,522,522,522,522,522,522,522,522,522,522,522,522,522,522,522,522,522,522,522,522,522,522,522,522,522,522,522,522,522,522,522,522,522,522,522,522,522,522,522,522,522,522,522,522,522,522,522,522,522,522,522,522,522,522,522,522,522,522,522,522,522,522,522,522,522,522,522,522,522,522,522,522,522,522,522,522,522,522,522,522,522,522,522,522,522,522,522,522,522,522,522,522,522,522,522,522,522,522,522,522,522,522,522,522,522,522,522,522,522,522,522,522,522,522",",297,297,297,297,297,297,297,297,297,297,297,297,297,297,297,297,297,297,297,297,297,297,297,297,297,297,297,297,297,297,297,297,297,297,297,297,297,297,297,297,297,297,297,297,297,297,297,297,297,297,297,297,297,297,297,297,297,297,297,297,297,297,297,297,297,297,297,297,297,297,297,297,297,297,297,297,297,297,297,297,297,297,297,297,297,297,297,297,297,297,297,297,297,297,297,297,297,297,297,297,297,297,297,297,297,297,297,297,297,297,297,297,297,297,297,297,297,297,297,297,297,297,297,297,297,297,297,297,297,297,297,297,297,297,297,297,297,297,297,297,297,297,297,297,297,297,297,297,297,297,297,297,297,297,297,297,297,297,297,297,297,297,297,297,297,297,297,297,297,297,297,297,297,297,297,297,297,297,297,297,297,297,297,297,297,297,297,297,297,297,297,297,297,297,297,297,297,297,297,297,297,297,297,297,297,297,297,297,297,297,297,297,297,297,297,297,297,297,297,297,297,297,297,297,297,297,297,297,297,297,297,297,297,297,297,297,297,297,297,297,297,297,297,297,297,297,297,297,297,297,297,297,297,297,297,297,297,297,297,297,297,297,297,297,297,297,297,297,297,297,297,297,297,297,297,297,297,297,297,297,297,297,297,297,297,297","0,6,11,16,20,26,32,36,41,46,51,55,61,66,71,76,81,86,91,95,101,106,111,116,121,126,131,135,141,146,151,156,161,166,171,175,181,186,191,196,201,206,212,216,221,226,231,236,240,246,251,255,261,266,271,275,281,286,291,295,301,306,311,316,321,326,331,335,341,346,352,356,360,366,371,375,381,387,391,396,400,406,411,415,421,426,431,436,440,446,451,455,461,466,471,476,480,486,491,495,501,506,511,516,520,526,532,536,541,546,551,556,561,566,571,575,581,585,591,596,600,606,611,615,621,625,631,636,640,646,651,655,661,666,671,676,680,686,691,695,701,706,711,716,720,726,731,735,741,746,751,756,760,766,771,775,781,786,791,796,800,806,811,815,821,826,831,836,841,846,851,856,860,866,872,876,881,886,891,895,901,906,912,916,921,926,931,935,941,946,951,956,961,966,971,976,981,986,991,996,1001,1006,1011,1016,1021,1026,1032,1036,1041,1046,1051,1056,1061,1066,1072,1075,1081,1085,1091,1096,1100,1106,1111,1115,1121,1125,1131,1136,1140,1146,1151,1155,1161,1166,1171,1176,1180,1186,1191,1195,1201,1206,1211,1216,1221,1226,1231,1236,1240,1246,1251,1255,1261,1265,1271,1276,1280,1286,1291,1295,1301,1305,1311,1316,1321,1326,1331,1335,1341,1345,1351,1356,1361,1366,1371,1375,1381,1386,1391,1396,1401,1406,1411,1415,1421,1426,1431","286","easy","","","","","",""
"","mousetracking","23","34464","0.0-4.0-3.2","87","","","","","<div style=""font-size:60px;"">+</div>","","","rt_catch","FIX",",522,522,522,522,522,522,522,522,522,522,522,522,522,522,522,522,522",",297,297,297,297,297,297,297,297,297,297,297,297,297,297,297,297,297","1,6,12,16,21,27,31,36,41,46,52,56,61,67,71,76,82,86","17","easy","","","","","",""
"","mousetracking","24","34759","0.0-4.0-4.2","295","","","","","<div style=""font-size:60px;"">+</div>","","","rt_window","HIT",",522,522,522,522,522,522,522,522,522,522,522,522,522,522,522,522,522,522,522,522,522,522,522,522,522,522,522,522,522,522,522,522,522,522,522,522,522,522,522,522,522,522,522,522,522,522,522,522,522,522,522,522,522,522,522,522,522,522",",297,297,297,297,297,297,297,297,297,297,297,297,297,297,297,297,297,297,297,297,297,297,297,297,297,297,297,297,297,297,297,297,297,297,297,297,297,297,297,297,297,297,297,297,297,297,297,297,297,297,297,297,297,297,297,297,297,297","0,6,11,16,21,27,31,36,41,46,51,56,61,66,71,76,80,86,91,97,101,106,110,116,121,127,131,136,142,146,151,157,161,166,172,176,181,186,191,196,201,207,211,216,220,226,231,237,241,246,251,256,260,266,271,276,281,286,291","58","easy","","","","","",""
"","mousetracking","25","34887","0.0-4.0-5.2","127","","","","","<div style=""font-size:60px;"">+</div>","","","decision","ACQUIRE_TARG",",,,,586,586,586,586,586,586,586,586,586,586,586,586,586,586,586,586,586,586,586,642,642,642",",,,,365,365,365,365,365,365,365,365,365,365,365,365,365,365,365,365,365,365,365,477,477,477","0,6,10,16,21,26,31,36,41,46,51,56,61,66,71,76,81,86,91,96,101,106,110,118,120,126","25","easy","","","","","",""
"","mousetracking","26","35147","0.0-4.0-6.2","258","","","","","<div style=""font-size:60px;"">+</div>","","","targer_hold","SUCCESS",",645,645,645,645,645,645,645,645,645,645,645,645,645,645,645,645,645,645,645,645,645,645,645,645,645,645,645,645,645,645,645,645,645,645,645,645,645,645,645,645,645,645,645,645,645,645,645,645,645,645,645",",485,485,485,485,485,485,485,485,485,485,485,485,485,485,485,485,485,485,485,485,485,485,485,485,485,485,485,485,485,485,485,485,485,485,485,485,485,485,485,485,485,485,485,485,485,485,485,485,485,485,485","0,5,11,16,20,26,30,35,41,46,50,56,61,65,70,75,80,86,91,95,101,106,110,115,121,126,130,136,141,145,150,156,160,166,171,175,181,186,190,196,201,205,211,216,220,226,231,235,241,245,250,256","51","","20","","","","",""
"","html-keyboard-response","27","36151","0.0-4.0-7.2","null","","","","","<p style=color:green;>SUCCESS! + 20 points</p> SCORE: 40, Trial number: 2","null","","feedback","","","","","","easy","20","210","100","273.22330470336317,456.77669529663683","SUCCESS!",""
"","mousetracking","28","36459","0.0-4.0-0.3","307","","","","","<div style=""font-size:60px;"">+</div>","","","ITI","FIX",",529,529,529,529,529,529,529,529,529,529,529,529,529,529,529,529,529,529,529,529,529,529,529,529,529,529,529,529,529,529,529,529,529,529,529,529,529,529,529,529,529,529,529,529,529,529,529,529,529,529,529,529,529,529,529,529,529,529,529,529,529",",302,302,302,302,302,302,302,302,302,302,302,302,302,302,302,302,302,302,302,302,302,302,302,302,302,302,302,302,302,302,302,302,302,302,302,302,302,302,302,302,302,302,302,302,302,302,302,302,302,302,302,302,302,302,302,302,302,302,302,302,302","0,5,11,16,20,26,31,35,41,45,51,56,60,66,71,75,81,86,91,96,100,106,111,115,121,126,131,136,141,146,151,155,161,166,171,176,181,186,191,195,201,206,211,216,221,226,231,235,241,246,251,256,261,266,271,276,280,286,290,295,301,305","61","easy","","","","","",""
"","mousetracking","29","36966","0.0-4.0-1.3","505","","","","","<div style=""font-size:60px;"">+</div>","","","fixation","FIX",",529,529,529,529,529,529,529,529,529,529,529,529,529,529,529,529,529,529,529,529,529,529,529,529,529,529,529,529,529,529,529,529,529,529,529,529,529,529,529,529,529,529,529,529,529,529,529,529,529,529,529,529,529,529,529,529,529,529,529,529,529,529,529,529,529,529,529,529,529,529,529,529,529,529,529,529,529,529,529,529,529,529,529,529,529,529,529,529,529,529,529,529,529,529,529,529,529,529,529,529,529",",302,302,302,302,302,302,302,302,302,302,302,302,302,302,302,302,302,302,302,302,302,302,302,302,302,302,302,302,302,302,302,302,302,302,302,302,302,302,302,302,302,302,302,302,302,302,302,302,302,302,302,302,302,302,302,302,302,302,302,302,302,302,302,302,302,302,302,302,302,302,302,302,302,302,302,302,302,302,302,302,302,302,302,302,302,302,302,302,302,302,302,302,302,302,302,302,302,302,302,302,302","0,5,10,16,20,25,31,35,40,45,50,56,60,65,71,75,80,86,90,95,100,106,110,116,120,125,130,135,140,146,150,155,161,165,170,176,180,185,191,195,200,206,210,216,220,225,230,236,240,245,250,255,260,266,270,275,281,285,290,296,300,306,310,315,320,326,330,335,341,345,350,355,360,366,370,375,381,385,390,396,400,405,411,415,420,426,430,435,441,445,450,456,460,465,471,475,480,486,490,495,501,505","101","easy","","","","","",""
"","mousetracking","30","38238","0.0-4.0-2.3","1271","","","","","<div style=""font-size:60px;"">+</div>","","","delay","FIX",",529,529,529,529,529,529,529,529,529,529,529,529,529,529,529,529,529,529,529,529,529,529,529,529,529,529,529,529,529,529,529,529,529,529,529,529,529,529,529,529,529,529,529,529,529,529,529,529,529,529,529,529,529,529,529,529,529,529,529,529,529,529,529,529,529,529,529,529,529,529,529,529,529,529,529,529,529,529,529,529,529,529,529,529,529,529,529,529,529,529,529,529,529,529,529,529,529,529,529,529,529,529,529,529,529,529,529,529,529,529,529,529,529,529,529,529,529,529,529,529,529,529,529,529,529,529,529,529,529,529,529,529,529,529,529,529,529,529,529,529,529,529,529,529,529,529,529,529,529,529,529,529,529,529,529,529,529,529,529,529,529,529,529,529,529,529,529,529,529,529,529,529,529,529,529,529,529,529,529,529,529,529,529,529,529,529,529,529,529,529,529,529,529,529,529,529,529,529,529,529,529,529,529,529,529,529,529,529,529,529,529,529,529,529,529,529,529,529,529,529,529,529,529,529,529,529,529,529,529,529,529,529,529,529,529,529,529,529,529,529,529,529,529,529,529,529,529,529,529,529,529,529,529,529",",302,302,302,302,302,302,302,302,302,302,302,302,302,302,302,302,302,302,302,302,302,302,302,302,302,302,302,302,302,302,302,302,302,302,302,302,302,302,302,302,302,302,302,302,302,302,302,302,302,302,302,302,302,302,302,302,302,302,302,302,302,302,302,302,302,302,302,302,302,302,302,302,302,302,302,302,302,302,302,302,302,302,302,302,302,302,302,302,302,302,302,302,302,302,302,302,302,302,302,302,302,302,302,302,302,302,302,302,302,302,302,302,302,302,302,302,302,302,302,302,302,302,302,302,302,302,302,302,302,302,302,302,302,302,302,302,302,302,302,302,302,302,302,302,302,302,302,302,302,302,302,302,302,302,302,302,302,302,302,302,302,302,302,302,302,302,302,302,302,302,302,302,302,302,302,302,302,302,302,302,302,302,302,302,302,302,302,302,302,302,302,302,302,302,302,302,302,302,302,302,302,302,302,302,302,302,302,302,302,302,302,302,302,302,302,302,302,302,302,302,302,302,302,302,302,302,302,302,302,302,302,302,302,302,302,302,302,302,302,302,302,302,302,302,302,302,302,302,302,302,302,302,302,302","0,5,11,16,20,26,30,35,41,45,51,55,60,66,70,75,80,85,91,95,100,106,110,115,120,125,131,135,140,146,150,155,160,165,171,175,180,186,190,195,201,205,211,215,220,226,230,235,241,245,251,255,261,265,271,276,280,286,291,295,300,306,310,316,320,326,331,335,341,345,351,356,360,366,370,375,381,385,391,396,400,406,410,415,420,425,431,435,440,446,450,455,460,465,471,475,480,486,490,495,501,505,511,515,520,526,530,535,541,545,551,556,560,566,571,575,581,585,591,596,600,606,610,615,621,625,631,636,640,646,650,655,661,665,671,676,680,686,690,695,700,705,711,715,720,726,730,735,740,745,751,755,760,766,770,775,780,785,791,795,800,806,810,815,821,825,831,835,840,846,850,855,861,865,871,875,880,886,890,895,901,905,911,915,920,926,930,935,941,945,951,955,960,966,970,975,981,985,991,996,1000,1006,1010,1015,1021,1025,1031,1036,1040,1046,1051,1055,1061,1065,1071,1076,1080,1086,1090,1095,1101,1105,1111,1116,1120,1126,1130,1136,1140,1145,1151,1155,1161,1165,1171,1176,1180,1186,1191,1195,1201,1205,1211,1216,1220,1226,1231,1235,1240,1246,1250,1255,1260,1265,1271","254","easy","","","","","",""
"","mousetracking","31","38324","0.0-4.0-3.3","84","","","","","<div style=""font-size:60px;"">+</div>","","","rt_catch","FIX",",529,529,529,529,529,529,529,529,529,529,529,529,529,529,529,529",",302,302,302,302,302,302,302,302,302,302,302,302,302,302,302,302","0,6,11,16,21,26,32,36,41,46,51,56,61,66,72,76,81","16","easy","","","","","",""
"","mousetracking","32","38593","0.0-4.0-4.3","268","","","","","<div style=""font-size:60px;"">+</div>","","","rt_window","HIT",",529,529,529,529,529,529,529,529,529,529,529,529,529,529,529,529,529,529,529,529,529,529,529,529,529,529,529,529,529,529,529,529,529,529,529,529,529,529,529,529,529,529,529,529,529,529,529,529,529,529,529,529,529",",302,302,302,302,302,302,302,302,302,302,302,302,302,302,302,302,302,302,302,302,302,302,302,302,302,302,302,302,302,302,302,302,302,302,302,302,302,302,302,302,302,302,302,302,302,302,302,302,302,302,302,302,302","0,5,10,15,20,26,30,35,40,45,50,55,60,66,71,75,81,85,90,95,100,105,110,115,120,126,131,135,141,145,150,156,160,166,170,175,181,185,190,195,200,206,210,215,221,226,231,235,240,245,250,255,261,265","53","easy","","","","","",""
"","mousetracking","33","38651","0.0-4.0-5.3","57","","","","","<div style=""font-size:60px;"">+</div>","","","decision","ACQUIRE_TARG",",,,593,593,593,593,593,593,593,640,640",",,,234,234,234,234,234,234,234,190,190","0,5,11,16,20,25,30,35,40,46,50,55","11","easy","","","","","",""
"","mousetracking","34","38912","0.0-4.0-6.3","261","","","","","<div style=""font-size:60px;"">+</div>","","","targer_hold","SUCCESS",",,652,652,652,652,652,652,652,652,652,652,652,652,652,652,652,652,652,652,652,652,652,652,652,652,652,652,652,652,652,652,652,652,652,652,652,652,652,652,652,652,652,652,652,652,652,652,652,652,652,652",",,179,179,179,179,179,179,179,179,179,179,179,179,179,179,179,179,179,179,179,179,179,179,179,179,179,179,179,179,179,179,179,179,179,179,179,179,179,179,179,179,179,179,179,179,179,179,179,179,179,179","0,6,11,16,21,26,31,36,41,45,51,57,61,66,72,76,81,86,92,96,101,107,111,117,121,126,132,136,141,147,151,157,161,166,172,176,181,186,191,197,201,206,211,216,220,226,231,236,241,246,251,256","51","","10","","","","",""
"","html-keyboard-response","35","39913","0.0-4.0-7.3","null","","","","","<p style=color:green;>SUCCESS! + 10 points</p> SCORE: 50, Trial number: 3","null","","feedback","","","","","","easy","10","200","100","273.22330470336317,103.22330470336314","SUCCESS!",""
"","mousetracking","36","40221","0.0-4.0-0.4","307","","","","","<div style=""font-size:60px;"">+</div>","","","ITI","FIX",",530,530,530,530,530,530,530,530,530,530,530,530,530,530,530,530,530,530,530,530,530,530,530,530,530,530,530,530,530,530,530,530,530,530,530,530,530,530,530,530,530,530,530,530,530,530,530,530,530,530,530,530,530,530,530,530,530,530,530,530,530",",300,300,300,300,300,300,300,300,300,300,300,300,300,300,300,300,300,300,300,300,300,300,300,300,300,300,300,300,300,300,300,300,300,300,300,300,300,300,300,300,300,300,300,300,300,300,300,300,300,300,300,300,300,300,300,300,300,300,300,300,300","0,6,10,15,21,26,31,35,41,46,50,55,61,65,71,76,80,86,91,95,101,106,110,116,121,125,131,136,140,146,150,155,161,165,171,176,180,186,190,196,201,205,211,216,220,226,230,235,241,245,251,256,261,266,271,275,281,286,291,295,301,306","61","easy","","","","","",""
"","mousetracking","37","40729","0.0-4.0-1.4","507","","","","","<div style=""font-size:60px;"">+</div>","","","fixation","FIX",",530,530,530,530,530,530,530,530,530,530,530,530,530,530,530,530,530,530,530,530,530,530,530,530,530,530,530,530,530,530,530,530,530,530,530,530,530,530,530,530,530,530,530,530,530,530,530,530,530,530,530,530,530,530,530,530,530,530,530,530,530,530,530,530,530,530,530,530,530,530,530,530,530,530,530,530,530,530,530,530,530,530,530,530,530,530,530,530,530,530,530,530,530,530,530,530,530,530,530,530,530",",300,300,300,300,300,300,300,300,300,300,300,300,300,300,300,300,300,300,300,300,300,300,300,300,300,300,300,300,300,300,300,300,300,300,300,300,300,300,300,300,300,300,300,300,300,300,300,300,300,300,300,300,300,300,300,300,300,300,300,300,300,300,300,300,300,300,300,300,300,300,300,300,300,300,300,300,300,300,300,300,300,300,300,300,300,300,300,300,300,300,300,300,300,300,300,300,300,300,300,300,300","0,5,11,16,21,25,31,36,40,46,51,55,61,65,71,76,80,86,91,95,101,106,111,116,120,126,131,135,141,146,151,156,160,166,171,175,181,186,191,196,201,206,211,215,220,226,231,235,241,245,251,255,261,266,270,276,281,285,291,296,300,306,311,315,321,326,330,336,341,345,351,356,360,366,370,376,381,385,391,395,401,406,411,416,421,425,431,436,440,446,451,455,461,466,471,476,480,486,491,495,500,506","101","easy","","","","","",""
"","mousetracking","38","41350","0.0-4.0-2.4","620","","","","","<div style=""font-size:60px;"">+</div>","","","delay","FIX",",530,530,530,530,530,530,530,530,530,530,530,530,530,530,530,530,530,530,530,530,530,530,530,530,530,530,530,530,530,530,530,530,530,530,530,530,530,530,530,530,530,530,530,530,530,530,530,530,530,530,530,530,530,530,530,530,530,530,530,530,530,530,530,530,530,530,530,530,530,530,530,530,530,530,530,530,530,530,530,530,530,530,530,530,530,530,530,530,530,530,530,530,530,530,530,530,530,530,530,530,530,530,530,530,530,530,530,530,530,530,530,530,530,530,530,530,530,530,530,530,530,530,530",",300,300,300,300,300,300,300,300,300,300,300,300,300,300,300,300,300,300,300,300,300,300,300,300,300,300,300,300,300,300,300,300,300,300,300,300,300,300,300,300,300,300,300,300,300,300,300,300,300,300,300,300,300,300,300,300,300,300,300,300,300,300,300,300,300,300,300,300,300,300,300,300,300,300,300,300,300,300,300,300,300,300,300,300,300,300,300,300,300,300,300,300,300,300,300,300,300,300,300,300,300,300,300,300,300,300,300,300,300,300,300,300,300,300,300,300,300,300,300,300,300,300,300","0,6,11,16,21,26,32,36,41,47,51,56,62,66,71,75,81,86,91,96,101,106,112,116,121,127,131,136,141,146,152,156,161,167,171,175,181,186,192,196,201,206,211,216,221,226,232,236,241,247,251,256,262,266,272,276,281,286,291,296,302,306,312,316,321,326,331,336,342,346,352,356,361,367,371,376,381,386,392,396,401,407,411,416,422,426,431,435,441,446,451,456,461,466,472,476,481,486,491,496,501,506,512,516,521,526,531,536,541,546,552,556,561,567,571,576,581,586,592,596,601,606,611,615","123","easy","","","","","",""
"","mousetracking","39","41439","0.0-4.0-3.4","88","","","","","<div style=""font-size:60px;"">+</div>","","","rt_catch","FIX",",530,530,530,530,530,530,530,530,530,530,530,530,530,530,530,530,530",",300,300,300,300,300,300,300,300,300,300,300,300,300,300,300,300,300","0,6,11,16,21,26,32,36,41,46,51,56,61,66,72,76,81,87","17","easy","","","","","",""
"","mousetracking","40","41777","0.0-4.0-4.4","336","","","","","<div style=""font-size:60px;"">+</div>","","","rt_window","HIT",",530,530,530,530,530,530,530,530,530,530,530,530,530,530,530,530,530,530,530,530,530,530,530,530,530,530,530,530,530,530,530,530,530,530,530,530,530,530,530,530,530,530,530,530,530,530,530,530,530,530,530,530,530,530,530,530,530,530,530,530,530,530,530,530,530,530",",300,300,300,300,300,300,300,300,300,300,300,300,300,300,300,300,300,300,300,300,300,300,300,300,300,300,300,300,300,300,300,300,300,300,300,300,300,300,300,300,300,300,300,300,300,300,300,300,300,300,300,300,300,300,300,300,300,300,300,300,300,300,300,300,300,300","0,5,11,16,22,26,31,36,41,46,51,56,61,66,71,75,81,86,91,96,101,107,111,116,121,126,132,136,141,145,151,156,160,166,171,175,181,186,191,196,201,206,211,215,221,226,232,236,241,247,251,256,260,266,271,275,281,285,291,296,301,306,311,316,320,326,331","66","easy","","","","","",""
"","mousetracking","41","41854","0.0-4.0-5.4","75","","","","","<div style=""font-size:60px;"">+</div>","","","decision","ACQUIRE_TARG",",,,570,570,570,570,570,570,570,570,570,570,647,647",",,,249,249,249,249,249,249,249,249,249,249,170,170","0,6,10,15,21,25,30,36,40,46,50,55,60,66,71","14","easy","","","","","",""
"","mousetracking","42","42113","0.0-4.0-6.4","258","","","","","<div style=""font-size:60px;"">+</div>","","","targer_hold","SUCCESS",",663,663,663,663,663,663,663,663,663,663,663,663,663,663,663,663,663,663,663,663,663,663,663,663,663,663,663,663,663,663,663,663,663,663,663,663,663,663,663,663,663,663,663,663,663,663,663,663,663,663,663",",154,154,154,154,154,154,154,154,154,154,154,154,154,154,154,154,154,154,154,154,154,154,154,154,154,154,154,154,154,154,154,154,154,154,154,154,154,154,154,154,154,154,154,154,154,154,154,154,154,154,154","0,6,10,16,21,26,31,36,41,46,51,56,61,66,71,76,80,86,91,96,101,106,111,116,121,127,131,136,140,146,151,157,161,166,171,176,181,186,191,196,201,206,211,216,221,226,231,236,241,247,251,256","51","","10","","","","",""
"","html-keyboard-response","43","43114","0.0-4.0-7.4","null","","","","","<p style=color:green;>SUCCESS! + 10 points</p> SCORE: 60, Trial number: 4","null","","feedback","","","","","","easy","10","210","100","273.22330470336317,103.22330470336314","SUCCESS!",""
"","mousetracking","44","43431","0.0-4.0-0.5","315","","","","","<div style=""font-size:60px;"">+</div>","","","ITI","FIX",",,,524,524,524,524,524,524,524,524,524,524,524,524,524,524,524,524,524,524,524,524,524,524,524,524,524,524,524,524,524,524,524,524,524,524,524,524,524,524,524,524,524,524,524,524,524,524,524,524,524,524,524,524,524,524,524,524,524,524,524,524,524",",,,298,298,298,298,298,298,298,298,298,298,298,298,298,298,298,298,298,298,298,298,298,298,298,298,298,298,298,298,298,298,298,298,298,298,298,298,298,298,298,298,298,298,298,298,298,298,298,298,298,298,298,298,298,298,298,298,298,298,298,298,298","0,6,10,15,20,26,30,36,41,46,50,56,61,66,70,75,80,86,90,95,101,106,110,116,121,125,131,136,140,146,151,155,161,165,170,176,180,185,191,195,200,206,210,216,221,225,230,235,240,246,250,256,261,265,270,275,280,286,290,296,300,305,311,315","63","easy","","","","","",""
"","mousetracking","45","43939","0.0-4.0-1.5","508","","","","","<div style=""font-size:60px;"">+</div>","","","fixation","FIX",",523,523,523,523,523,523,523,523,523,523,523,523,523,523,523,523,523,523,523,523,523,523,523,523,523,523,523,523,523,523,523,523,523,523,523,523,523,523,523,523,523,523,523,523,523,523,523,523,523,523,523,523,523,523,523,523,523,523,523,523,523,523,523,523,523,523,523,523,523,523,523,523,523,523,523,523,523,523,523,523,523,523,523,523,523,523,523,523,523,523,523,523,523,523,523,523,523,523,523,523,523",",300,300,300,300,300,300,300,300,300,300,300,300,300,300,300,300,300,300,300,300,300,300,300,300,300,300,300,300,300,300,300,300,300,300,300,300,300,300,300,300,300,300,300,300,300,300,300,300,300,300,300,300,300,300,300,300,300,300,300,300,300,300,300,300,300,300,300,300,300,300,300,300,300,300,300,300,300,300,300,300,300,300,300,300,300,300,300,300,300,300,300,300,300,300,300,300,300,300,300,300,300","1,6,11,16,21,26,32,37,41,46,51,56,62,66,72,76,81,86,92,96,101,106,111,116,121,126,132,136,141,147,151,156,161,166,171,177,181,186,192,196,201,206,211,216,221,226,232,236,241,246,251,256,261,266,272,276,281,287,291,296,301,306,311,317,321,326,331,336,341,346,351,357,361,366,371,376,381,386,391,396,401,406,412,416,421,426,431,436,441,446,452,456,461,466,471,477,481,486,492,496,502,506","101","easy","","","","","",""
"","mousetracking","46","44531","0.0-4.0-2.5","591","","","","","<div style=""font-size:60px;"">+</div>","","","delay","FIX",",523,523,523,523,523,523,523,523,523,523,523,523,523,523,523,523,523,523,523,523,523,523,523,523,523,523,523,523,523,523,523,523,523,523,523,523,523,523,523,523,523,523,523,523,523,523,523,523,523,523,523,523,523,523,523,523,523,523,523,523,523,523,523,523,523,523,523,523,523,523,523,523,523,523,523,523,523,523,523,523,523,523,523,523,523,523,523,523,523,523,523,523,523,523,523,523,523,523,523,523,523,523,523,523,523,523,523,523,523,523,523,523,523,523,523,523,523,523",",300,300,300,300,300,300,300,300,300,300,300,300,300,300,300,300,300,300,300,300,300,300,300,300,300,300,300,300,300,300,300,300,300,300,300,300,300,300,300,300,300,300,300,300,300,300,300,300,300,300,300,300,300,300,300,300,300,300,300,300,300,300,300,300,300,300,300,300,300,300,300,300,300,300,300,300,300,300,300,300,300,300,300,300,300,300,300,300,300,300,300,300,300,300,300,300,300,300,300,300,300,300,300,300,300,300,300,300,300,300,300,300,300,300,300,300,300,300","0,6,11,16,21,26,31,36,41,46,52,56,61,66,71,76,81,86,92,96,101,107,111,116,121,126,131,136,140,146,151,155,161,166,171,176,181,186,191,195,201,206,211,216,221,226,231,235,241,247,251,256,261,266,272,276,281,286,291,296,301,306,312,316,321,327,331,336,341,346,352,355,361,366,371,376,381,386,392,396,401,406,411,416,421,426,432,436,441,446,451,456,461,466,472,476,481,485,491,496,500,506,511,515,521,526,531,536,540,546,551,555,561,566,571,576,580,586,591","118","easy","","","","","",""
"","mousetracking","47","44619","0.0-4.0-3.5","87","","","","","<div style=""font-size:60px;"">+</div>","","","rt_catch","FIX",",523,523,523,523,523,523,523,523,523,523,523,523,523,523,523,523,523",",300,300,300,300,300,300,300,300,300,300,300,300,300,300,300,300,300","0,6,10,16,21,26,31,35,41,46,51,56,61,66,71,75,81,86","17","easy","","","","","",""
"","mousetracking","48","44959","0.0-4.0-4.5","338","","","","","<div style=""font-size:60px;"">+</div>","","","rt_window","HIT",",523,523,523,523,523,523,523,523,523,523,523,523,523,523,523,523,523,523,523,523,523,523,523,523,523,523,523,523,523,523,523,523,523,523,523,523,523,523,523,523,523,523,523,523,523,523,523,523,523,523,523,523,523,523,523,523,523,523,523,523,523,523,523,523,523,523,523",",300,300,300,300,300,300,300,300,300,300,300,300,300,300,300,300,300,300,300,300,300,300,300,300,300,300,300,300,300,300,300,300,300,300,300,300,300,300,300,300,300,300,300,300,300,300,300,300,300,300,300,300,300,300,300,300,300,300,300,300,300,300,300,300,300,300,300","0,5,11,16,22,26,31,35,41,46,51,56,61,66,71,75,81,86,91,96,101,106,111,116,121,126,132,136,141,147,151,156,162,166,171,175,181,186,191,196,201,206,211,216,221,226,232,236,241,246,251,255,261,266,271,276,281,286,291,296,301,306,312,315,321,326,331,336","67","easy","","","","","",""
"","mousetracking","49","45103","0.0-4.0-5.5","143","","","","","<div style=""font-size:60px;"">+</div>","","","decision","ACQUIRE_TARG",",,,,574,574,574,574,574,574,574,574,574,574,574,574,574,574,574,574,574,574,574,574,574,574,574,698,698",",,,,254,254,254,254,254,254,254,254,254,254,254,254,254,254,254,254,254,254,254,254,254,254,254,153,153","0,5,11,16,20,26,30,35,40,46,51,56,60,65,71,76,80,85,91,95,100,106,110,116,121,125,130,135,141","28","easy","","","","","",""
"","mousetracking","50","45363","0.0-4.0-6.5","259","","","","","<div style=""font-size:60px;"">+</div>","","","targer_hold","SUCCESS",",701,701,701,701,701,701,701,701,701,701,701,701,701,701,701,701,701,701,701,701,701,701,701,701,701,701,701,701,701,701,701,701,701,701,701,701,701,701,701,701,701,701,701,701,701,701,701,701,701,701,701",",151,151,151,151,151,151,151,151,151,151,151,151,151,151,151,151,151,151,151,151,151,151,151,151,151,151,151,151,151,151,151,151,151,151,151,151,151,151,151,151,151,151,151,151,151,151,151,151,151,151,151","0,5,10,16,21,25,30,35,41,46,50,55,61,65,71,75,80,86,90,95,100,106,110,116,120,125,131,136,140,146,151,155,161,166,170,176,180,186,191,195,200,206,210,215,221,225,231,236,240,246,251,255","51","","20","","","","",""
"","html-keyboard-response","51","46369","0.0-4.0-7.5","null","","","","","<p style=color:green;>SUCCESS! + 20 points</p> SCORE: 80, Trial number: 5","null","","feedback","","","","","","easy","20","220","50","273.22330470336317,103.22330470336314","SUCCESS!",""
"","mousetracking","52","46682","0.0-4.0-0.6","312","","","","","<div style=""font-size:60px;"">+</div>","","","ITI","FIX",",,548,548,548,548,548,548,548,548,548,548,548,548,548,548,548,548,548,548,548,548,548,548,548,548,548,548,548,548,548,548,548,548,548,548,548,548,548,548,548,548,548,548,548,548,548,548,548,548,548,548,548,548,548,548,548,548,548,548,548,548,548",",,292,292,292,292,292,292,292,292,292,292,292,292,292,292,292,292,292,292,292,292,292,292,292,292,292,292,292,292,292,292,292,292,292,292,292,292,292,292,292,292,292,292,292,292,292,292,292,292,292,292,292,292,292,292,292,292,292,292,292,292,292","0,6,10,16,20,26,30,35,41,45,50,56,60,65,71,75,80,86,90,96,101,105,110,116,120,126,131,135,140,146,150,155,161,165,170,176,180,185,191,195,201,206,210,216,220,225,231,235,240,246,250,256,260,265,270,276,280,286,291,295,301,306,310","62","easy","","","","","",""
"","mousetracking","53","47198","0.0-4.0-1.6","515","","","","","<div style=""font-size:60px;"">+</div>","","","fixation","FIX",",,547,547,547,547,547,547,547,547,547,547,547,547,547,547,547,547,547,547,547,547,547,547,547,547,547,547,547,547,547,547,547,547,547,547,547,547,547,547,547,547,547,547,547,547,547,547,547,547,547,547,547,547,547,547,547,547,547,547,547,547,547,547,547,547,547,547,547,547,547,547,547,547,547,547,547,547,547,547,547,547,547,547,547,547,547,547,547,547,547,547,547,547,547,547,547,547,547,547,547,547,547",",,293,293,293,293,293,293,293,293,293,293,293,293,293,293,293,293,293,293,293,293,293,293,293,293,293,293,293,293,293,293,293,293,293,293,293,293,293,293,293,293,293,293,293,293,293,293,293,293,293,293,293,293,293,293,293,293,293,293,293,293,293,293,293,293,293,293,293,293,293,293,293,293,293,293,293,293,293,293,293,293,293,293,293,293,293,293,293,293,293,293,293,293,293,293,293,293,293,293,293,293,293","0,5,10,16,20,26,30,35,41,45,51,55,60,66,71,75,81,86,90,95,101,106,111,115,120,126,131,136,140,145,150,155,160,165,170,175,181,186,191,196,201,205,211,215,220,226,231,235,241,245,251,256,260,266,271,275,281,286,290,296,301,305,311,316,320,326,330,335,341,345,350,356,360,366,371,375,381,386,390,396,400,406,411,415,421,426,430,436,441,446,451,455,461,466,470,476,481,485,491,495,501,506,510","102","easy","","","","","",""
"","mousetracking","54","47742","0.0-4.0-2.6","543","","","","","<div style=""font-size:60px;"">+</div>","","","delay","FIX",",531,531,531,531,531,531,531,531,531,531,531,531,531,531,531,531,531,531,531,531,531,531,531,531,531,531,531,531,531,531,531,531,531,531,531,531,531,531,531,531,531,531,531,531,531,531,531,531,531,531,531,531,531,531,531,531,531,531,531,531,531,531,531,531,531,531,531,531,531,531,531,531,531,531,531,531,531,531,531,531,531,531,531,531,531,531,531,531,531,531,531,531,531,531,531,531,531,531,531,531,531,531,531,531,531,531,531,531",",302,302,302,302,302,302,302,302,302,302,302,302,302,302,302,302,302,302,302,302,302,302,302,302,302,302,302,302,302,302,302,302,302,302,302,302,302,302,302,302,302,302,302,302,302,302,302,302,302,302,302,302,302,302,302,302,302,302,302,302,302,302,302,302,302,302,302,302,302,302,302,302,302,302,302,302,302,302,302,302,302,302,302,302,302,302,302,302,302,302,302,302,302,302,302,302,302,302,302,302,302,302,302,302,302,302,302,302","0,6,11,16,20,26,30,36,41,46,51,56,60,66,71,75,81,86,91,96,101,106,110,116,121,126,131,135,141,146,150,156,161,166,171,175,181,186,190,196,201,206,211,215,221,226,230,236,241,246,251,256,261,266,270,276,281,287,291,296,300,306,311,315,321,326,331,336,340,346,351,355,361,366,370,376,381,386,391,395,401,406,410,416,421,426,431,436,441,446,451,455,461,466,470,476,481,486,491,496,501,506,510,516,521,527,531,536,540","108","easy","","","","","",""
"","mousetracking","55","47830","0.0-4.0-3.6","87","","","","","<div style=""font-size:60px;"">+</div>","","","rt_catch","FIX",",531,531,531,531,531,531,531,531,531,531,531,531,531,531,531,531,531",",302,302,302,302,302,302,302,302,302,302,302,302,302,302,302,302,302","0,5,11,16,20,26,30,36,41,46,51,56,60,66,71,75,81,86","17","easy","","","","","",""
"","mousetracking","56","48160","0.0-4.0-4.6","329","","","","","<div style=""font-size:60px;"">+</div>","","","rt_window","HIT",",531,531,531,531,531,531,531,531,531,531,531,531,531,531,531,531,531,531,531,531,531,531,531,531,531,531,531,531,531,531,531,531,531,531,531,531,531,531,531,531,531,531,531,531,531,531,531,531,531,531,531,531,531,531,531,531,531,531,531,531,531,531,531,531,531",",302,302,302,302,302,302,302,302,302,302,302,302,302,302,302,302,302,302,302,302,302,302,302,302,302,302,302,302,302,302,302,302,302,302,302,302,302,302,302,302,302,302,302,302,302,302,302,302,302,302,302,302,302,302,302,302,302,302,302,302,302,302,302,302,302","0,6,11,16,21,26,32,36,41,46,51,56,61,66,72,76,81,87,91,96,101,106,112,116,121,127,131,136,141,146,152,156,161,167,171,176,181,186,191,195,201,206,211,216,221,226,232,236,241,247,251,256,260,266,272,276,280,286,291,296,301,306,312,316,321,327","65","easy","","","","","",""
"","mousetracking","57","48303","0.0-4.0-5.6","142","","","","","<div style=""font-size:60px;"">+</div>","","","decision","ACQUIRE_TARG",",,,477,477,477,477,477,477,477,477,477,477,477,477,477,477,477,477,477,477,477,477,477,477,477,477,360,360",",,,354,354,354,354,354,354,354,354,354,354,354,354,354,354,354,354,354,354,354,354,354,354,354,354,483,483","0,5,11,15,20,26,31,35,41,46,50,55,61,65,71,75,81,85,91,95,101,106,111,115,120,126,131,135,141","28","easy","","","","","",""
"","mousetracking","58","48563","0.0-4.0-6.6","259","","","","","<div style=""font-size:60px;"">+</div>","","","targer_hold","SUCCESS",",357,357,357,357,357,357,357,357,357,357,357,357,357,357,357,357,357,357,357,357,357,357,357,357,357,357,357,357,357,357,357,357,357,357,357,357,357,357,357,357,357,357,357,357,357,357,357,357,357,357,357",",487,487,487,487,487,487,487,487,487,487,487,487,487,487,487,487,487,487,487,487,487,487,487,487,487,487,487,487,487,487,487,487,487,487,487,487,487,487,487,487,487,487,487,487,487,487,487,487,487,487,487","0,6,11,16,21,26,31,35,41,46,51,56,60,66,71,75,81,86,90,96,101,107,111,116,120,126,131,136,141,146,151,156,161,166,170,176,181,186,191,196,201,206,211,216,221,226,230,236,241,245,251,255","51","","10","","","","",""
"","html-keyboard-response","59","49564","0.0-4.0-7.6","null","","","","","<p style=color:green;>SUCCESS! + 10 points</p> SCORE: 90, Trial number: 6","null","","feedback","","","","","","easy","10","220","100","626.7766952966368,456.77669529663683","SUCCESS!",""
"","mousetracking","60","49882","0.0-4.0-0.7","317","","","","","<div style=""font-size:60px;"">+</div>","","","ITI","FIX",",,,535,535,535,535,535,535,535,535,535,535,535,535,535,535,535,535,535,535,535,535,535,535,535,535,535,535,535,535,535,535,535,535,535,535,535,535,535,535,535,535,535,535,535,535,535,535,535,535,535,535,535,535,535,535,535,535,535,535,535,535,535",",,,297,297,297,297,297,297,297,297,297,297,297,297,297,297,297,297,297,297,297,297,297,297,297,297,297,297,297,297,297,297,297,297,297,297,297,297,297,297,297,297,297,297,297,297,297,297,297,297,297,297,297,297,297,297,297,297,297,297,297,297,297","0,6,11,16,21,25,30,36,41,46,51,56,61,66,71,76,80,86,91,96,101,106,111,116,121,126,131,136,140,146,151,156,161,166,170,176,181,185,191,196,200,206,211,216,221,226,231,236,241,247,251,256,260,266,271,275,281,286,290,296,301,306,311,316","63","easy","","","","","",""
"","mousetracking","61","50387","0.0-4.0-1.7","504","","","","","<div style=""font-size:60px;"">+</div>","","","fixation","FIX",",534,534,534,534,534,534,534,534,534,534,534,534,534,534,534,534,534,534,534,534,534,534,534,534,534,534,534,534,534,534,534,534,534,534,534,534,534,534,534,534,534,534,534,534,534,534,534,534,534,534,534,534,534,534,534,534,534,534,534,534,534,534,534,534,534,534,534,534,534,534,534,534,534,534,534,534,534,534,534,534,534,534,534,534,534,534,534,534,534,534,534,534,534,534,534,534,534,534,534,534",",296,296,296,296,296,296,296,296,296,296,296,296,296,296,296,296,296,296,296,296,296,296,296,296,296,296,296,296,296,296,296,296,296,296,296,296,296,296,296,296,296,296,296,296,296,296,296,296,296,296,296,296,296,296,296,296,296,296,296,296,296,296,296,296,296,296,296,296,296,296,296,296,296,296,296,296,296,296,296,296,296,296,296,296,296,296,296,296,296,296,296,296,296,296,296,296,296,296,296,296","0,6,11,16,21,27,31,36,41,46,51,56,61,66,71,76,80,86,91,95,101,106,112,116,121,126,131,136,141,146,151,156,161,166,171,176,181,186,192,196,201,206,211,216,221,226,231,236,241,246,251,255,261,266,272,276,281,286,292,296,301,306,311,316,320,326,331,335,341,346,351,356,361,366,371,375,381,386,391,396,401,406,411,415,421,426,432,436,441,446,451,456,461,466,472,476,481,486,491,496,501","100","easy","","","","","",""
"","mousetracking","62","51384","0.0-4.0-2.7","996","","","","","<div style=""font-size:60px;"">+</div>","","","delay","FIX",",534,534,534,534,534,534,534,534,534,534,534,534,534,534,534,534,534,534,534,534,534,534,534,534,534,534,534,534,534,534,534,534,534,534,534,534,534,534,534,534,534,534,534,534,534,534,534,534,534,534,534,534,534,534,534,534,534,534,534,534,534,534,534,534,534,534,534,534,534,534,534,534,534,534,534,534,534,534,534,534,534,534,534,534,534,534,534,534,534,534,534,534,534,534,534,534,534,534,534,534,534,534,534,534,534,534,534,534,534,534,534,534,534,534,534,534,534,534,534,534,534,534,534,534,534,534,534,534,534,534,534,534,534,534,534,534,534,534,534,534,534,534,534,534,534,534,534,534,534,534,534,534,534,534,534,534,534,534,534,534,534,534,534,534,534,534,534,534,534,534,534,534,534,534,534,534,534,534,534,534,534,534,534,534,534,534,534,534,534,534,534,534,534,534,534,534,534,534",",296,296,296,296,296,296,296,296,296,296,296,296,296,296,296,296,296,296,296,296,296,296,296,296,296,296,296,296,296,296,296,296,296,296,296,296,296,296,296,296,296,296,296,296,296,296,296,296,296,296,296,296,296,296,296,296,296,296,296,296,296,296,296,296,296,296,296,296,296,296,296,296,296,296,296,296,296,296,296,296,296,296,296,296,296,296,296,296,296,296,296,296,296,296,296,296,296,296,296,296,296,296,296,296,296,296,296,296,296,296,296,296,296,296,296,296,296,296,296,296,296,296,296,296,296,296,296,296,296,296,296,296,296,296,296,296,296,296,296,296,296,296,296,296,296,296,296,296,296,296,296,296,296,296,296,296,296,296,296,296,296,296,296,296,296,296,296,296,296,296,296,296,296,296,296,296,296,296,296,296,296,296,296,296,296,296,296,296,296,296,296,296,296,296,296,296,296,296","0,6,12,16,21,26,31,36,40,46,51,55,61,66,71,76,81,86,91,95,101,106,112,115,121,126,131,135,141,146,151,156,161,166,171,175,181,186,191,196,201,206,211,216,221,226,232,236,241,246,251,256,261,266,272,276,281,286,291,296,301,306,312,316,321,326,331,335,341,346,351,356,361,366,370,376,381,387,391,396,400,406,412,416,421,426,431,436,440,446,451,455,461,465,471,476,480,486,490,496,501,506,511,515,521,526,531,536,540,546,551,555,561,566,571,576,580,586,591,595,601,606,611,616,620,626,631,635,641,646,651,656,660,666,671,675,681,686,691,696,700,706,711,716,721,726,731,736,741,746,751,756,760,766,771,775,781,786,791,796,800,806,811,815,821,825,831,836,841,846,852,856,861,866,871,876,880,886,892,896,901,906,911,916,921,926,932,936,941,946,951,956,961,966,972,976,981,986,991","198","easy","","","","","",""
"","mousetracking","63","51471","0.0-4.0-3.7","86","","","","","<div style=""font-size:60px;"">+</div>","","","rt_catch","FIX",",534,534,534,534,534,534,534,534,534,534,534,534,534,534,534,534,534",",296,296,296,296,296,296,296,296,296,296,296,296,296,296,296,296,296","0,5,11,15,21,26,31,35,41,46,50,56,61,66,71,75,81,86","17","easy","","","","","",""
"","mousetracking","64","51743","0.0-4.0-4.7","271","","","","","<div style=""font-size:60px;"">+</div>","","","rt_window","HIT",",534,534,534,534,534,534,534,534,534,534,534,534,534,534,534,534,534,534,534,534,534,534,534,534,534,534,534,534,534,534,534,534,534,534,534,534,534,534,534,534,534,534,534,534,534,534,534,534,534,534,534,534,534",",296,296,296,296,296,296,296,296,296,296,296,296,296,296,296,296,296,296,296,296,296,296,296,296,296,296,296,296,296,296,296,296,296,296,296,296,296,296,296,296,296,296,296,296,296,296,296,296,296,296,296,296,296","0,6,11,16,20,26,31,35,41,46,51,56,60,66,71,75,81,86,91,96,100,106,112,116,121,126,131,136,141,146,152,156,161,166,171,176,181,186,192,196,201,207,211,216,220,226,231,236,241,246,251,256,260,266","53","easy","","","","","",""
"","mousetracking","65","51903","0.0-4.0-5.7","159","","","","","<div style=""font-size:60px;"">+</div>","","","decision","ACQUIRE_TARG",",,,584,584,584,584,584,584,584,584,584,584,584,584,584,584,584,584,584,584,584,584,584,584,584,584,584,584,584,680,680",",,,240,240,240,240,240,240,240,240,240,240,240,240,240,240,240,240,240,240,240,240,240,240,240,240,240,240,240,148,148","0,6,11,15,21,26,31,36,41,46,51,57,61,66,71,76,81,87,91,96,101,106,111,115,121,126,131,136,142,146,150,156","31","easy","","","","","",""
"","mousetracking","66","52164","0.0-4.0-6.7","259","","","","","<div style=""font-size:60px;"">+</div>","","","targer_hold","SUCCESS",",682,682,682,682,682,682,682,682,682,682,682,682,682,682,682,682,682,682,682,682,682,682,682,682,682,682,682,682,682,682,682,682,682,682,682,682,682,682,682,682,682,682,682,682,682,682,682,682,682,682,682",",146,146,146,146,146,146,146,146,146,146,146,146,146,146,146,146,146,146,146,146,146,146,146,146,146,146,146,146,146,146,146,146,146,146,146,146,146,146,146,146,146,146,146,146,146,146,146,146,146,146,146","0,6,10,15,20,25,30,35,40,46,50,55,60,65,71,75,80,86,90,96,100,105,111,116,121,125,131,135,140,145,150,155,161,165,171,176,180,186,190,195,200,205,210,216,220,225,231,235,240,246,250,255","51","","50","","","","",""
"","html-keyboard-response","67","53168","0.0-4.0-7.7","null","","","","","<p style=color:green;>SUCCESS! + 50 points</p> SCORE: 140, Trial number: 7","null","","feedback","","","","","","easy","50","200","50","273.22330470336317,103.22330470336314","SUCCESS!",""
"","mousetracking","68","53473","0.0-4.0-0.8","304","","","","","<div style=""font-size:60px;"">+</div>","","","ITI","FIX",",530,530,530,530,530,530,530,530,530,530,530,530,530,530,530,530,530,530,530,530,530,530,530,530,530,530,530,530,530,530,530,530,530,530,530,530,530,530,530,530,530,530,530,530,530,530,530,530,530,530,530,530,530,530,530,530,530,530,530,530",",291,291,291,291,291,291,291,291,291,291,291,291,291,291,291,291,291,291,291,291,291,291,291,291,291,291,291,291,291,291,291,291,291,291,291,291,291,291,291,291,291,291,291,291,291,291,291,291,291,291,291,291,291,291,291,291,291,291,291,291","0,6,11,17,21,26,32,36,41,47,51,56,61,66,72,76,81,87,91,96,101,106,112,116,121,127,131,136,142,146,151,156,161,166,172,176,181,187,191,196,202,206,212,217,221,227,231,236,242,246,251,257,261,266,271,276,281,286,291,296,301","60","easy","","","","","",""
"","mousetracking","69","53980","0.0-4.0-1.8","505","","","","","<div style=""font-size:60px;"">+</div>","","","fixation","FIX",",530,530,530,530,530,530,530,530,530,530,530,530,530,530,530,530,530,530,530,530,530,530,530,530,530,530,530,530,530,530,530,530,530,530,530,530,530,530,530,530,530,530,530,530,530,530,530,530,530,530,530,530,530,530,530,530,530,530,530,530,530,530,530,530,530,530,530,530,530,530,530,530,530,530,530,530,530,530,530,530,530,530,530,530,530,530,530,530,530,530,530,530,530,530,530,530,530,530,530,530,530",",291,291,291,291,291,291,291,291,291,291,291,291,291,291,291,291,291,291,291,291,291,291,291,291,291,291,291,291,291,291,291,291,291,291,291,291,291,291,291,291,291,291,291,291,291,291,291,291,291,291,291,291,291,291,291,291,291,291,291,291,291,291,291,291,291,291,291,291,291,291,291,291,291,291,291,291,291,291,291,291,291,291,291,291,291,291,291,291,291,291,291,291,291,291,291,291,291,291,291,291,291","0,6,10,15,21,25,31,35,40,46,50,56,61,65,70,75,80,86,90,95,101,106,110,116,121,125,130,136,140,146,150,155,160,165,170,176,180,185,191,195,200,206,210,215,221,225,230,236,240,245,251,255,261,265,270,276,280,285,291,295,300,306,310,315,320,325,331,335,340,345,351,355,360,366,371,375,380,386,390,395,400,405,411,415,420,426,430,435,441,445,450,456,460,465,471,475,480,486,490,495,501,505","101","easy","","","","","",""
"","mousetracking","70","54632","0.0-4.0-2.8","650","","","","","<div style=""font-size:60px;"">+</div>","","","delay","FIX",",530,530,530,530,530,530,530,530,530,530,530,530,530,530,530,530,530,530,530,530,530,530,530,530,530,530,530,530,530,530,530,530,530,530,530,530,530,530,530,530,530,530,530,530,530,530,530,530,530,530,530,530,530,530,530,530,530,530,530,530,530,530,530,530,530,530,530,530,530,530,530,530,530,530,530,530,530,530,530,530,530,530,530,530,530,530,530,530,530,530,530,530,530,530,530,530,530,530,530,530,530,530,530,530,530,530,530,530,530,530,530,530,530,530,530,530,530,530,530,530,530,530,530,530,530,530,530,530,530",",296,296,296,296,296,296,296,296,296,296,296,296,296,296,296,296,296,296,296,296,296,296,296,296,296,296,296,296,296,296,296,296,296,296,296,296,296,296,296,296,296,296,296,296,296,296,296,296,296,296,296,296,296,296,296,296,296,296,296,296,296,296,296,296,296,296,296,296,296,296,296,296,296,296,296,296,296,296,296,296,296,296,296,296,296,296,296,296,296,296,296,296,296,296,296,296,296,296,296,296,296,296,296,296,296,296,296,296,296,296,296,296,296,296,296,296,296,296,296,296,296,296,296,296,296,296,296,296,296","0,5,11,16,20,26,31,35,41,46,50,56,61,65,70,76,80,86,91,95,101,106,110,116,121,125,130,136,140,146,151,155,161,165,170,176,180,186,191,195,201,205,210,216,220,226,231,235,241,246,250,255,261,265,271,275,280,286,290,295,301,305,310,316,320,326,331,335,341,345,350,356,360,366,371,375,381,386,390,396,401,406,411,416,420,426,431,435,441,445,450,456,460,466,471,475,480,486,490,496,501,505,511,515,521,526,530,536,540,546,551,555,561,566,570,576,580,586,591,595,601,606,610,616,620,626,631,635,641,646","129","easy","","","","","",""
"","mousetracking","71","54719","0.0-4.0-3.8","86","","","","","<div style=""font-size:60px;"">+</div>","","","rt_catch","FIX",",530,530,530,530,530,530,530,530,530,530,530,530,530,530,530,530,530",",296,296,296,296,296,296,296,296,296,296,296,296,296,296,296,296,296","0,5,10,15,21,25,30,36,40,46,51,55,61,65,70,75,80,86","17","easy","","","","","",""
"","mousetracking","72","54976","0.0-4.0-4.8","256","","","","","<div style=""font-size:60px;"">+</div>","","","rt_window","HIT",",530,530,530,530,530,530,530,530,530,530,530,530,530,530,530,530,530,530,530,530,530,530,530,530,530,530,530,530,530,530,530,530,530,530,530,530,530,530,530,530,530,530,530,530,530,530,530,530,530,530",",296,296,296,296,296,296,296,296,296,296,296,296,296,296,296,296,296,296,296,296,296,296,296,296,296,296,296,296,296,296,296,296,296,296,296,296,296,296,296,296,296,296,296,296,296,296,296,296,296,296","0,6,11,15,21,26,30,35,41,45,51,56,60,66,71,75,81,86,90,96,101,105,110,116,120,126,131,135,141,146,150,156,161,166,171,175,181,186,190,195,200,206,211,215,221,225,230,236,241,246,250","50","easy","","","","","",""
"","mousetracking","73","55153","0.0-4.0-5.8","175","","","","","<div style=""font-size:60px;"">+</div>","","","decision","ACQUIRE_TARG",",,,583,583,583,583,583,583,583,583,583,583,583,583,583,583,583,583,583,583,583,583,583,583,583,583,583,583,583,583,583,583,645,645",",,,374,374,374,374,374,374,374,374,374,374,374,374,374,374,374,374,374,374,374,374,374,374,374,374,374,374,374,374,374,374,468,468","0,6,11,16,22,26,31,37,42,46,51,56,61,67,71,77,81,86,91,96,101,106,112,116,121,126,131,136,142,146,151,157,161,167,171","34","easy","","","","","",""
"","mousetracking","74","55413","0.0-4.0-6.8","258","","","","","<div style=""font-size:60px;"">+</div>","","","targer_hold","SUCCESS",",,648,648,648,648,648,648,648,648,648,648,648,648,648,648,648,648,648,648,648,648,648,648,648,648,648,648,648,648,648,648,648,648,648,648,648,648,648,648,648,648,648,648,648,648,648,648,648,648,648,648",",,472,472,472,472,472,472,472,472,472,472,472,472,472,472,472,472,472,472,472,472,472,472,472,472,472,472,472,472,472,472,472,472,472,472,472,472,472,472,472,472,472,472,472,472,472,472,472,472,472,472","0,5,10,15,20,25,31,35,41,45,51,55,61,65,70,75,80,85,90,95,101,106,110,115,121,126,130,135,141,145,151,155,160,166,170,175,181,185,191,196,201,205,211,215,221,225,230,236,240,245,251,255","51","","50","","","","",""
"","html-keyboard-response","75","56418","0.0-4.0-7.8","null","","","","","<p style=color:green;>SUCCESS! + 50 points</p> SCORE: 190, Trial number: 8","null","","feedback","","","","","","easy","50","230","100","273.22330470336317,456.77669529663683","SUCCESS!",""
"","mousetracking","76","56726","0.0-4.0-0.9","308","","","","","<div style=""font-size:60px;"">+</div>","","","ITI","FIX",",527,527,527,527,527,527,527,527,527,527,527,527,527,527,527,527,527,527,527,527,527,527,527,527,527,527,527,527,527,527,527,527,527,527,527,527,527,527,527,527,527,527,527,527,527,527,527,527,527,527,527,527,527,527,527,527,527,527,527,527,527",",291,291,291,291,291,291,291,291,291,291,291,291,291,291,291,291,291,291,291,291,291,291,291,291,291,291,291,291,291,291,291,291,291,291,291,291,291,291,291,291,291,291,291,291,291,291,291,291,291,291,291,291,291,291,291,291,291,291,291,291,291","0,6,12,16,21,26,31,36,41,46,52,56,61,67,71,76,82,86,92,96,101,107,111,116,121,126,131,136,141,146,152,156,162,166,172,177,181,187,191,196,202,206,212,216,221,226,232,236,241,247,251,256,262,266,272,276,282,286,291,296,301,307","61","easy","","","","","",""
"","mousetracking","77","57248","0.0-4.0-1.9","520","","","","","<div style=""font-size:60px;"">+</div>","","","fixation","FIX",",,,,525,525,525,525,525,525,525,525,525,525,525,525,525,525,525,525,525,525,525,525,525,525,525,525,525,525,525,525,525,525,525,525,525,525,525,525,525,525,525,525,525,525,525,525,525,525,525,525,525,525,525,525,525,525,525,525,525,525,525,525,525,525,525,525,525,525,525,525,525,525,525,525,525,525,525,525,525,525,525,525,525,525,525,525,525,525,525,525,525,525,525,525,525,525,525,525,525,525,525,525",",,,,299,299,299,299,299,299,299,299,299,299,299,299,299,299,299,299,299,299,299,299,299,299,299,299,299,299,299,299,299,299,299,299,299,299,299,299,299,299,299,299,299,299,299,299,299,299,299,299,299,299,299,299,299,299,299,299,299,299,299,299,299,299,299,299,299,299,299,299,299,299,299,299,299,299,299,299,299,299,299,299,299,299,299,299,299,299,299,299,299,299,299,299,299,299,299,299,299,299,299,299","0,5,11,15,20,25,31,36,40,45,50,56,61,65,70,76,80,85,91,95,100,105,110,116,120,126,130,136,140,145,150,156,161,165,170,176,181,186,190,196,201,205,211,216,220,226,230,236,241,245,251,256,260,266,271,276,281,285,291,296,300,306,311,315,320,325,330,336,340,345,351,355,360,366,370,376,381,385,391,395,400,406,410,416,421,425,431,436,440,446,450,456,460,465,471,475,480,486,490,496,500,505,511,515","103","easy","","","","","",""
"","mousetracking","78","57777","0.0-4.0-2.9","527","","","","","<div style=""font-size:60px;"">+</div>","","","delay","FIX",",531,531,531,531,531,531,531,531,531,531,531,531,531,531,531,531,531,531,531,531,531,531,531,531,531,531,531,531,531,531,531,531,531,531,531,531,531,531,531,531,531,531,531,531,531,531,531,531,531,531,531,531,531,531,531,531,531,531,531,531,531,531,531,531,531,531,531,531,531,531,531,531,531,531,531,531,531,531,531,531,531,531,531,531,531,531,531,531,531,531,531,531,531,531,531,531,531,531,531,531,531,531,531,531,531",",302,302,302,302,302,302,302,302,302,302,302,302,302,302,302,302,302,302,302,302,302,302,302,302,302,302,302,302,302,302,302,302,302,302,302,302,302,302,302,302,302,302,302,302,302,302,302,302,302,302,302,302,302,302,302,302,302,302,302,302,302,302,302,302,302,302,302,302,302,302,302,302,302,302,302,302,302,302,302,302,302,302,302,302,302,302,302,302,302,302,302,302,302,302,302,302,302,302,302,302,302,302,302,302,302","0,5,10,15,20,25,31,35,41,45,51,56,60,65,71,75,80,86,90,95,100,105,111,115,120,126,130,135,140,145,151,155,160,166,170,175,181,185,191,195,200,206,210,215,220,225,231,236,240,246,251,255,261,265,271,276,280,286,290,295,300,305,311,315,320,326,330,335,341,345,351,355,360,366,370,375,381,385,391,396,400,406,411,415,421,425,430,435,440,445,451,455,460,466,470,475,480,485,491,495,500,505,510,515,520,525","105","easy","","","","","",""
"","mousetracking","79","57866","0.0-4.0-3.9","88","","","","","<div style=""font-size:60px;"">+</div>","","","rt_catch","FIX",",531,531,531,531,531,531,531,531,531,531,531,531,531,531,531,531,531",",302,302,302,302,302,302,302,302,302,302,302,302,302,302,302,302,302","0,6,11,15,21,26,31,36,41,46,51,55,60,66,70,75,81,85","17","easy","","","","","",""
"","mousetracking","80","58193","0.0-4.0-4.9","326","","","","","<div style=""font-size:60px;"">+</div>","","","rt_window","HIT",",531,531,531,531,531,531,531,531,531,531,531,531,531,531,531,531,531,531,531,531,531,531,531,531,531,531,531,531,531,531,531,531,531,531,531,531,531,531,531,531,531,531,531,531,531,531,531,531,531,531,531,531,531,531,531,531,531,531,531,531,531,531,531,531",",302,302,302,302,302,302,302,302,302,302,302,302,302,302,302,302,302,302,302,302,302,302,302,302,302,302,302,302,302,302,302,302,302,302,302,302,302,302,302,302,302,302,302,302,302,302,302,302,302,302,302,302,302,302,302,302,302,302,302,302,302,302,302,302","0,6,11,15,21,25,31,36,41,46,52,56,61,66,71,76,81,86,92,96,101,106,111,116,120,126,131,135,141,146,151,156,161,166,171,175,181,186,191,196,201,206,211,215,221,226,231,236,241,246,251,255,261,266,271,276,280,286,291,296,300,306,311,316,321","64","easy","","","","","",""
"","mousetracking","81","58286","0.0-4.0-5.9","92","","","","","<div style=""font-size:60px;"">+</div>","","","decision","ACQUIRE_TARG",",,,,581,581,581,581,581,581,581,581,581,581,581,581,581,639,639",",,,,245,245,245,245,245,245,245,245,245,245,245,245,245,187,187","0,5,10,15,21,26,30,36,41,46,51,55,61,65,71,76,80,85,91","18","easy","","","","","",""
"","mousetracking","82","58546","0.0-4.0-6.9","258","","","","","<div style=""font-size:60px;"">+</div>","","","targer_hold","SUCCESS",",,645,645,645,645,645,645,645,645,645,645,645,645,645,645,645,645,645,645,645,645,645,645,645,645,645,645,645,645,645,645,645,645,645,645,645,645,645,645,645,645,645,645,645,645,645,645,645,645,645,645",",,182,182,182,182,182,182,182,182,182,182,182,182,182,182,182,182,182,182,182,182,182,182,182,182,182,182,182,182,182,182,182,182,182,182,182,182,182,182,182,182,182,182,182,182,182,182,182,182,182,182","0,5,11,15,20,26,30,35,40,45,51,56,60,65,71,75,81,85,91,95,100,105,110,116,120,125,131,135,140,146,150,155,161,165,170,176,180,186,190,195,200,206,210,215,221,225,231,235,240,246,250,255","51","","10","","","","",""
"","html-keyboard-response","83","59551","0.0-4.0-7.9","null","","","","","<p style=color:green;>SUCCESS! + 10 points</p> SCORE: 200, Trial number: 9","null","","feedback","","","","","","easy","10","230","100","273.22330470336317,103.22330470336314","SUCCESS!",""
"","mousetracking","84","59859","0.0-4.0-0.10","307","","","","","<div style=""font-size:60px;"">+</div>","","","ITI","FIX",",532,532,532,532,532,532,532,532,532,532,532,532,532,532,532,532,532,532,532,532,532,532,532,532,532,532,532,532,532,532,532,532,532,532,532,532,532,532,532,532,532,532,532,532,532,532,532,532,532,532,532,532,532,532,532,532,532,532,532,532,532",",303,303,303,303,303,303,303,303,303,303,303,303,303,303,303,303,303,303,303,303,303,303,303,303,303,303,303,303,303,303,303,303,303,303,303,303,303,303,303,303,303,303,303,303,303,303,303,303,303,303,303,303,303,303,303,303,303,303,303,303,303","0,6,11,15,21,26,31,36,41,45,50,56,60,66,71,75,81,86,91,96,101,106,111,115,121,126,130,136,141,147,151,155,161,166,170,176,181,186,191,196,200,206,211,216,221,226,231,235,241,246,250,256,261,266,271,276,280,286,291,295,301,305","61","easy","","","","","",""
"","mousetracking","85","60368","0.0-4.0-1.10","508","","","","","<div style=""font-size:60px;"">+</div>","","","fixation","FIX",",532,532,532,532,532,532,532,532,532,532,532,532,532,532,532,532,532,532,532,532,532,532,532,532,532,532,532,532,532,532,532,532,532,532,532,532,532,532,532,532,532,532,532,532,532,532,532,532,532,532,532,532,532,532,532,532,532,532,532,532,532,532,532,532,532,532,532,532,532,532,532,532,532,532,532,532,532,532,532,532,532,532,532,532,532,532,532,532,532,532,532,532,532,532,532,532,532,532,532,532,532",",303,303,303,303,303,303,303,303,303,303,303,303,303,303,303,303,303,303,303,303,303,303,303,303,303,303,303,303,303,303,303,303,303,303,303,303,303,303,303,303,303,303,303,303,303,303,303,303,303,303,303,303,303,303,303,303,303,303,303,303,303,303,303,303,303,303,303,303,303,303,303,303,303,303,303,303,303,303,303,303,303,303,303,303,303,303,303,303,303,303,303,303,303,303,303,303,303,303,303,303,303","0,5,11,16,20,26,31,35,41,46,50,56,61,66,71,76,80,86,90,95,101,105,111,116,120,126,131,135,141,145,151,156,160,166,171,175,181,186,191,195,201,205,211,216,220,226,230,235,241,245,251,256,260,266,270,275,281,285,291,296,300,306,310,315,321,326,331,335,341,346,351,356,360,366,371,375,381,386,391,396,401,406,410,415,421,425,431,436,440,446,450,455,461,465,471,476,480,486,491,495,501,505","101","easy","","","","","",""
"","mousetracking","86","61661","0.0-4.0-2.10","1291","","","","","<div style=""font-size:60px;"">+</div>","","","delay","FIX",",532,532,532,532,532,532,532,532,532,532,532,532,532,532,532,532,532,532,532,532,532,532,532,532,532,532,532,532,532,532,532,532,532,532,532,532,532,532,532,532,532,532,532,532,532,532,532,532,532,532,532,532,532,532,532,532,532,532,532,532,532,532,532,532,532,532,532,532,532,532,532,532,532,532,532,532,532,532,532,532,532,532,532,532,532,532,532,532,532,532,532,532,532,532,532,532,532,532,532,532,532,532,532,532,532,532,532,532,532,532,532,532,532,532,532,532,532,532,532,532,532,532,532,532,532,532,532,532,532,532,532,532,532,532,532,532,532,532,532,532,532,532,532,532,532,532,532,532,532,532,532,532,532,532,532,532,532,532,532,532,532,532,532,532,532,532,532,532,532,532,532,532,532,532,532,532,532,532,532,532,532,532,532,532,532,532,532,532,532,532,532,532,532,532,532,532,532,532,532,532,532,532,532,532,532,532,532,532,532,532,532,532,532,532,532,532,532,532,532,532,532,532,532,532,532,532,532,532,532,532,532,532,532,532,532,532,532,532,532,532,532,532,532,532,532,532,532,532,532,532,532,532,532,532,532,532,532,532",",303,303,303,303,303,303,303,303,303,303,303,303,303,303,303,303,303,303,303,303,303,303,303,303,303,303,303,303,303,303,303,303,303,303,303,303,303,303,303,303,303,303,303,303,303,303,303,303,303,303,303,303,303,303,303,303,303,303,303,303,303,303,303,303,303,303,303,303,303,303,303,303,303,303,303,303,303,303,303,303,303,303,303,303,303,303,303,303,303,303,303,303,303,303,303,303,303,303,303,303,303,303,303,303,303,303,303,303,303,303,303,303,303,303,303,303,303,303,303,303,303,303,303,303,303,303,303,303,303,303,303,303,303,303,303,303,303,303,303,303,303,303,303,303,303,303,303,303,303,303,303,303,303,303,303,303,303,303,303,303,303,303,303,303,303,303,303,303,303,303,303,303,303,303,303,303,303,303,303,303,303,303,303,303,303,303,303,303,303,303,303,303,303,303,303,303,303,303,303,303,303,303,303,303,303,303,303,303,303,303,303,303,303,303,303,303,303,303,303,303,303,303,303,303,303,303,303,303,303,303,303,303,303,303,303,303,303,303,303,303,303,303,303,303,303,303,303,303,303,303,303,303,303,303,303,303,303,303","0,6,11,16,21,26,31,36,41,46,51,56,61,66,72,76,81,86,91,96,100,106,111,115,121,126,131,136,141,146,151,156,160,166,171,175,181,186,191,196,201,206,211,216,221,226,231,236,241,246,251,256,260,266,272,276,281,287,291,296,300,306,311,315,321,327,331,336,340,346,352,356,361,367,371,376,380,386,391,395,401,406,411,416,421,426,431,435,441,446,451,456,461,466,471,476,481,486,492,496,501,506,511,516,521,526,532,536,541,547,551,556,560,566,571,575,581,585,591,596,600,606,611,615,621,626,631,636,640,646,651,655,661,666,671,676,680,686,691,695,701,706,711,716,721,726,731,735,741,746,751,756,760,766,771,775,781,786,791,796,800,806,811,815,821,826,831,836,840,846,851,855,861,866,871,876,881,886,891,896,901,906,911,916,921,926,931,936,941,946,952,956,961,966,971,976,981,986,992,996,1001,1007,1011,1016,1020,1026,1031,1035,1041,1046,1051,1056,1061,1066,1071,1075,1081,1086,1092,1096,1101,1107,1111,1116,1120,1126,1131,1135,1141,1146,1151,1156,1160,1166,1171,1175,1181,1186,1191,1196,1201,1206,1211,1216,1220,1226,1231,1235,1241,1246,1252,1256,1261,1266,1271,1276,1281,1286,1291","258","easy","","","","","",""
"","mousetracking","87","61746","0.0-4.0-3.10","84","","","","","<div style=""font-size:60px;"">+</div>","","","rt_catch","FIX",",532,532,532,532,532,532,532,532,532,532,532,532,532,532,532,532",",303,303,303,303,303,303,303,303,303,303,303,303,303,303,303,303","1,6,12,16,22,26,31,36,41,46,52,56,61,67,71,76,82","16","easy","","","","","",""
"","mousetracking","88","62009","0.0-4.0-4.10","262","","","","","<div style=""font-size:60px;"">+</div>","","","rt_window","HIT",",532,532,532,532,532,532,532,532,532,532,532,532,532,532,532,532,532,532,532,532,532,532,532,532,532,532,532,532,532,532,532,532,532,532,532,532,532,532,532,532,532,532,532,532,532,532,532,532,532,532,532,532",",303,303,303,303,303,303,303,303,303,303,303,303,303,303,303,303,303,303,303,303,303,303,303,303,303,303,303,303,303,303,303,303,303,303,303,303,303,303,303,303,303,303,303,303,303,303,303,303,303,303,303,303","0,5,11,16,20,26,31,35,40,46,51,55,60,66,70,75,81,85,90,95,100,105,110,116,120,125,130,136,140,145,150,155,160,166,170,175,181,186,190,196,200,205,210,215,220,225,230,235,241,245,250,256,260","52","easy","","","","","",""
"","mousetracking","89","62369","0.0-4.0-5.10","359","","","","","<div style=""font-size:60px;"">+</div>","","","decision","ACQUIRE_TARG",",,,590,590,590,590,590,590,590,590,590,590,590,590,590,590,590,590,590,590,590,590,590,590,590,590,590,590,590,590,590,590,590,590,590,590,590,590,590,590,590,590,590,590,590,590,590,590,590,590,590,590,590,590,590,590,590,590,590,590,590,590,590,590,590,590,590,590,590,682,682",",,,361,361,361,361,361,361,361,361,361,361,361,361,361,361,361,361,361,361,361,361,361,361,361,361,361,361,361,361,361,361,361,361,361,361,361,361,361,361,361,361,361,361,361,361,361,361,361,361,361,361,361,361,361,361,361,361,361,361,361,361,361,361,361,361,361,361,361,475,475","0,6,11,16,21,26,31,36,41,46,52,56,62,66,71,76,81,86,91,96,101,107,111,116,121,126,131,136,141,145,152,157,161,166,171,177,181,186,191,196,201,207,211,216,221,226,231,236,241,246,251,257,261,266,271,276,282,286,291,297,301,306,311,316,321,326,332,336,341,346,351,357","71","easy","","","","","",""
"","mousetracking","90","62629","0.0-4.0-6.10","258","","","","","<div style=""font-size:60px;"">+</div>","","","targer_hold","SUCCESS",",,684,684,684,684,684,684,684,684,684,684,684,684,684,684,684,684,684,684,684,684,684,684,684,684,684,684,684,684,684,684,684,684,684,684,684,684,684,684,684,684,684,684,684,684,684,684,684,684,684,684",",,478,478,478,478,478,478,478,478,478,478,478,478,478,478,478,478,478,478,478,478,478,478,478,478,478,478,478,478,478,478,478,478,478,478,478,478,478,478,478,478,478,478,478,478,478,478,478,478,478,478","0,5,10,16,20,26,31,36,40,46,51,56,60,66,70,76,81,85,90,96,100,106,110,115,121,125,130,136,140,146,150,155,160,166,171,175,180,185,190,196,200,206,211,215,220,226,230,235,241,245,250,256","51","","50","","","","",""
"","html-keyboard-response","91","63634","0.0-4.0-7.10","null","","","","","<p style=color:green;>SUCCESS! + 50 points</p> SCORE: 250, Trial number: 10","null","","feedback","","","","","","easy","50","210","50","273.22330470336317,456.77669529663683","SUCCESS!",""
"","mousetracking","92","63941","0.0-4.0-0.11","306","","","","","<div style=""font-size:60px;"">+</div>","","","ITI","FIX",",540,540,540,540,540,540,540,540,540,540,540,540,540,540,540,540,540,540,540,540,540,540,540,540,540,540,540,540,540,540,540,540,540,540,540,540,540,540,540,540,540,540,540,540,540,540,540,540,540,540,540,540,540,540,540,540,540,540,540,540,540",",296,296,296,296,296,296,296,296,296,296,296,296,296,296,296,296,296,296,296,296,296,296,296,296,296,296,296,296,296,296,296,296,296,296,296,296,296,296,296,296,296,296,296,296,296,296,296,296,296,296,296,296,296,296,296,296,296,296,296,296,296","0,6,10,15,21,25,30,36,40,46,51,55,61,65,70,76,80,86,91,95,101,105,110,116,120,126,131,135,141,146,150,156,160,166,171,176,181,185,190,196,200,206,211,215,221,225,230,236,240,246,251,255,261,266,270,276,280,286,291,295,301,306","61","easy","","","","","",""
"","mousetracking","93","64449","0.0-4.0-1.11","507","","","","","<div style=""font-size:60px;"">+</div>","","","fixation","FIX",",540,540,540,540,540,540,540,540,540,540,540,540,540,540,540,540,540,540,540,540,540,540,540,540,540,540,540,540,540,540,540,540,540,540,540,540,540,540,540,540,540,540,540,540,540,540,540,540,540,540,540,540,540,540,540,540,540,540,540,540,540,540,540,540,540,540,540,540,540,540,540,540,540,540,540,540,540,540,540,540,540,540,540,540,540,540,540,540,540,540,540,540,540,540,540,540,540,540,540,540,540",",296,296,296,296,296,296,296,296,296,296,296,296,296,296,296,296,296,296,296,296,296,296,296,296,296,296,296,296,296,296,296,296,296,296,296,296,296,296,296,296,296,296,296,296,296,296,296,296,296,296,296,296,296,296,296,296,296,296,296,296,296,296,296,296,296,296,296,296,296,296,296,296,296,296,296,296,296,296,296,296,296,296,296,296,296,296,296,296,296,296,296,296,296,296,296,296,296,296,296,296,296","0,5,11,16,20,26,31,35,41,46,51,56,61,66,70,75,80,85,91,95,101,106,110,116,120,126,131,135,141,146,151,156,160,166,171,175,181,186,191,196,201,206,211,215,221,225,231,236,240,246,251,255,261,266,271,276,280,286,291,295,301,306,311,316,321,326,331,336,340,346,351,355,361,366,371,376,380,386,391,395,401,406,411,416,421,426,431,435,441,446,451,456,460,466,471,475,481,485,491,496,500,506","101","easy","","","","","",""
"","mousetracking","94","65597","0.0-4.0-2.11","1147","","","","","<div style=""font-size:60px;"">+</div>","","","delay","FIX",",,519,519,519,519,519,519,519,519,519,519,519,519,519,519,519,519,519,519,519,519,519,519,519,519,519,519,519,519,519,519,519,519,519,519,519,519,519,519,519,519,519,519,519,519,519,519,519,519,519,519,519,519,519,519,519,519,519,519,519,519,519,519,519,519,519,519,519,519,519,519,519,519,519,519,519,519,519,519,519,519,519,519,519,519,519,519,519,519,519,519,519,519,519,519,519,519,519,519,519,519,519,519,519,519,519,519,519,519,519,519,519,519,519,519,519,519,519,519,519,519,519,519,519,519,519,519,519,519,519,519,519,519,519,519,519,519,519,519,519,519,519,519,519,519,519,519,519,519,519,519,519,519,519,519,519,519,519,519,519,519,519,519,519,519,519,519,519,519,519,519,519,519,519,519,519,519,519,519,519,519,519,519,519,519,519,519,519,519,519,519,519,519,519,519,519,519,519,519,519,519,519,519,519,519,519,519,519,519,519,519,519,519,519,519,519,519,519,519,519,519,519,519,519,519,519,519,519,519",",,304,304,304,304,304,304,304,304,304,304,304,304,304,304,304,304,304,304,304,304,304,304,304,304,304,304,304,304,304,304,304,304,304,304,304,304,304,304,304,304,304,304,304,304,304,304,304,304,304,304,304,304,304,304,304,304,304,304,304,304,304,304,304,304,304,304,304,304,304,304,304,304,304,304,304,304,304,304,304,304,304,304,304,304,304,304,304,304,304,304,304,304,304,304,304,304,304,304,304,304,304,304,304,304,304,304,304,304,304,304,304,304,304,304,304,304,304,304,304,304,304,304,304,304,304,304,304,304,304,304,304,304,304,304,304,304,304,304,304,304,304,304,304,304,304,304,304,304,304,304,304,304,304,304,304,304,304,304,304,304,304,304,304,304,304,304,304,304,304,304,304,304,304,304,304,304,304,304,304,304,304,304,304,304,304,304,304,304,304,304,304,304,304,304,304,304,304,304,304,304,304,304,304,304,304,304,304,304,304,304,304,304,304,304,304,304,304,304,304,304,304,304,304,304,304,304,304,304","0,5,10,16,21,25,30,35,41,46,51,56,60,65,71,75,80,86,90,95,101,105,111,116,120,126,130,135,141,145,151,156,160,166,170,175,181,185,191,196,200,206,211,215,221,225,231,236,240,246,251,255,261,266,270,276,281,285,291,295,300,306,310,315,321,325,331,336,340,346,350,355,361,365,371,376,380,386,391,395,401,406,411,416,420,426,431,435,440,446,451,455,461,465,471,476,480,486,491,495,501,506,511,515,520,526,531,535,541,545,551,556,560,566,570,575,581,585,591,596,600,606,611,615,621,626,631,636,640,645,651,655,660,666,670,675,681,686,691,695,701,706,710,716,721,726,731,736,740,746,751,755,761,765,771,776,780,786,791,795,801,806,810,816,821,825,831,836,840,846,850,855,861,865,871,876,880,886,890,895,901,905,911,915,921,926,931,936,940,946,951,955,960,966,970,976,980,986,991,995,1001,1006,1011,1016,1021,1025,1031,1035,1041,1046,1051,1056,1060,1066,1071,1075,1081,1085,1091,1096,1100,1106,1111,1116,1120,1126,1131,1135,1140,1146","229","easy","","","","","",""
"","mousetracking","95","65685","0.0-4.0-3.11","86","","","","","<div style=""font-size:60px;"">+</div>","","","rt_catch","FIX",",519,519,519,519,519,519,519,519,519,519,519,519,519,519,519,519,519",",304,304,304,304,304,304,304,304,304,304,304,304,304,304,304,304,304","0,6,11,16,21,26,30,36,42,46,51,56,61,66,71,76,81,86","17","easy","","","","","",""
"","mousetracking","96","65943","0.0-4.0-4.11","257","","","","","<div style=""font-size:60px;"">+</div>","","","rt_window","HIT",",519,519,519,519,519,519,519,519,519,519,519,519,519,519,519,519,519,519,519,519,519,519,519,519,519,519,519,519,519,519,519,519,519,519,519,519,519,519,519,519,519,519,519,519,519,519,519,519,519,519,519",",304,304,304,304,304,304,304,304,304,304,304,304,304,304,304,304,304,304,304,304,304,304,304,304,304,304,304,304,304,304,304,304,304,304,304,304,304,304,304,304,304,304,304,304,304,304,304,304,304,304,304","0,6,10,15,21,25,30,36,40,46,50,55,60,65,70,75,81,85,90,95,100,106,110,115,121,125,130,136,140,145,151,155,160,165,170,175,180,185,190,195,200,206,210,215,220,226,230,235,240,245,251,255","51","easy","","","","","",""
"","mousetracking","97","66203","0.0-4.0-5.11","259","","","","","<div style=""font-size:60px;"">+</div>","","","decision","ACQUIRE_TARG",",,,,486,486,486,486,486,486,486,486,486,486,486,486,486,486,486,486,486,486,486,486,486,486,486,486,486,486,486,486,486,486,486,486,486,486,486,486,486,486,486,486,486,486,486,486,486,486,366,366",",,,,337,337,337,337,337,337,337,337,337,337,337,337,337,337,337,337,337,337,337,337,337,337,337,337,337,337,337,337,337,337,337,337,337,337,337,337,337,337,337,337,337,337,337,337,337,337,466,466","0,5,11,15,21,25,31,35,41,45,50,56,61,65,71,76,80,85,90,96,101,105,110,115,121,126,130,136,140,145,150,156,160,165,170,176,180,185,191,196,201,206,210,215,221,225,231,235,241,246,251,255","51","easy","","","","","",""
"","mousetracking","98","66464","0.0-4.0-6.11","260","","","","","<div style=""font-size:60px;"">+</div>","","","targer_hold","SUCCESS",",362,362,362,362,362,362,362,362,362,362,362,362,362,362,362,362,362,362,362,362,362,362,362,362,362,362,362,362,362,362,362,362,362,362,362,362,362,362,362,362,362,362,362,362,362,362,362,362,362,362,362",",470,470,470,470,470,470,470,470,470,470,470,470,470,470,470,470,470,470,470,470,470,470,470,470,470,470,470,470,470,470,470,470,470,470,470,470,470,470,470,470,470,470,470,470,470,470,470,470,470,470,470","0,6,11,16,21,26,30,36,41,45,51,56,60,66,70,75,80,86,91,95,101,105,111,115,121,126,130,136,141,145,151,156,160,166,170,176,181,185,191,196,200,206,210,216,221,225,231,236,240,246,251,256","51","","20","","","","",""
"","html-keyboard-response","99","67469","0.0-4.0-7.11","null","","","","","<p style=color:green;>SUCCESS! + 20 points</p> SCORE: 270, Trial number: 11","null","","feedback","","","","","","easy","20","220","50","626.7766952966368,456.77669529663683","SUCCESS!",""
"","mousetracking","100","67773","0.0-4.0-0.12","304","","","","","<div style=""font-size:60px;"">+</div>","","","ITI","FIX",",529,529,529,529,529,529,529,529,529,529,529,529,529,529,529,529,529,529,529,529,529,529,529,529,529,529,529,529,529,529,529,529,529,529,529,529,529,529,529,529,529,529,529,529,529,529,529,529,529,529,529,529,529,529,529,529,529,529,529,529",",291,291,291,291,291,291,291,291,291,291,291,291,291,291,291,291,291,291,291,291,291,291,291,291,291,291,291,291,291,291,291,291,291,291,291,291,291,291,291,291,291,291,291,291,291,291,291,291,291,291,291,291,291,291,291,291,291,291,291,291","0,6,11,16,21,26,31,35,41,46,52,56,61,66,72,76,81,86,91,96,101,106,112,116,121,127,131,136,141,147,151,156,162,166,171,175,181,186,192,196,201,207,211,217,221,226,232,236,241,247,251,256,261,266,271,276,281,287,291,296,301","60","easy","","","","","",""
"","mousetracking","101","68278","0.0-4.0-1.12","504","","","","","<div style=""font-size:60px;"">+</div>","","","fixation","FIX",",525,525,525,525,525,525,525,525,525,525,525,525,525,525,525,525,525,525,525,525,525,525,525,525,525,525,525,525,525,525,525,525,525,525,525,525,525,525,525,525,525,525,525,525,525,525,525,525,525,525,525,525,525,525,525,525,525,525,525,525,525,525,525,525,525,525,525,525,525,525,525,525,525,525,525,525,525,525,525,525,525,525,525,525,525,525,525,525,525,525,525,525,525,525,525,525,525,525,525,525",",295,295,295,295,295,295,295,295,295,295,295,295,295,295,295,295,295,295,295,295,295,295,295,295,295,295,295,295,295,295,295,295,295,295,295,295,295,295,295,295,295,295,295,295,295,295,295,295,295,295,295,295,295,295,295,295,295,295,295,295,295,295,295,295,295,295,295,295,295,295,295,295,295,295,295,295,295,295,295,295,295,295,295,295,295,295,295,295,295,295,295,295,295,295,295,295,295,295,295,295","0,5,11,16,21,26,31,36,41,46,51,56,61,66,71,75,81,86,91,96,101,106,111,115,121,126,131,136,140,146,151,156,161,166,171,176,181,185,191,196,200,206,211,215,221,225,231,236,240,246,251,255,261,265,271,276,280,286,291,295,301,306,311,315,321,326,331,336,341,346,351,355,361,366,371,376,381,386,391,395,401,406,411,416,421,426,431,435,441,446,451,456,460,466,471,475,481,486,491,496,500","100","easy","","","","","",""
"","mousetracking","102","69293","0.0-4.0-2.12","1014","","","","","<div style=""font-size:60px;"">+</div>","","","delay","FALSE_START",",525,525,525,525,525,525,525,525,525,525,525,525,525,525,525,525,525,525,525,525,525,525,525,525,525,525,525,525,525,525,525,525,525,525,525,525,525,525,525,525,525,525,525,525,525,525,525,525,525,525,525,525,525,525,525,525,525,525,525,525,525,525,525,525,525,525,525,525,525,525,525,525,525,525,525,525,525,525,525,525,525,525,525,525,525,525,525,525,525,525,525,525,525,525,525,525,525,525,525,525,525,525,525,525,525,525,525,525,525,525,525,525,525,525,525,525,525,525,525,525,525,525,525,525,525,525,525,525,525,525,525,525,525,525,525,525,525,525,525,525,525,525,525,525,525,525,525,525,525,525,525,525,525,525,525,525,525,525,525,525,525,525,525,525,525,525,525,525,525,525,525,525,525,525,525,525,525,525,525,525,525,525,525,525,525,525,525,525,525,525,525,525,525,525,525,525,525,525,525,525,525,525",",295,295,295,295,295,295,295,295,295,295,295,295,295,295,295,295,295,295,295,295,295,295,295,295,295,295,295,295,295,295,295,295,295,295,295,295,295,295,295,295,295,295,295,295,295,295,295,295,295,295,295,295,295,295,295,295,295,295,295,295,295,295,295,295,295,295,295,295,295,295,295,295,295,295,295,295,295,295,295,295,295,295,295,295,295,295,295,295,295,295,295,295,295,295,295,295,295,295,295,295,295,295,295,295,295,295,295,295,295,295,295,295,295,295,295,295,295,295,295,295,295,295,295,295,295,295,295,295,295,295,295,295,295,295,295,295,295,295,295,295,295,295,295,295,295,295,295,295,295,295,295,295,295,295,295,295,295,295,295,295,295,295,295,295,295,295,295,295,295,295,295,295,295,295,295,295,295,295,295,295,295,295,295,295,295,295,295,295,295,295,295,295,295,295,295,295,295,295,295,295,295,295","0,6,12,15,21,26,31,36,41,46,51,56,61,66,72,76,81,86,91,96,101,107,111,116,122,126,131,136,141,147,151,156,161,166,172,176,181,186,191,195,201,206,211,216,221,226,232,236,241,246,251,256,261,266,272,276,281,287,291,296,301,306,312,316,321,327,331,336,341,346,352,356,361,367,371,376,380,386,392,396,401,407,411,416,422,426,432,436,441,447,451,456,461,466,472,476,481,487,491,496,501,506,512,516,521,527,531,536,541,546,552,556,561,566,571,575,581,587,591,596,602,606,611,615,621,626,631,636,641,646,651,655,661,666,672,676,681,686,691,696,701,706,712,716,721,727,731,736,741,746,752,756,761,767,771,776,780,786,792,796,801,807,811,816,820,826,831,835,841,846,851,856,860,866,871,875,881,886,891,896,901,906,911,915,921,926,931,935,941,946,951,956,962,966,971,976,980,986,991,995,1002,1006,1011","202","easy","","","","","",""
"","mousetracking","103","69495","0.0-4.0-3.12","null","","","","","<div style=""font-size:60px;"">+</div>","","","rt_catch","Timeout",",,,569,569,569,569,569,569,569,569,569,569,569,569,569,569,569,569,569,569,569,569,569,569,569,569,569,569,569,569,569,569,569,569,569,569,691,691,691,691",",,,335,335,335,335,335,335,335,335,335,335,335,335,335,335,335,335,335,335,335,335,335,335,335,335,335,335,335,335,335,335,335,335,335,335,468,468,468,468","0,6,11,16,20,25,31,35,41,45,51,56,61,65,71,76,80,85,91,96,101,105,111,115,121,126,130,136,141,146,151,156,161,165,171,176,181,186,190,196,201","40","easy","","","","","",""
"","mousetracking","104","70710","0.0-4.0-4.12","1214","","","","","<div style=""font-size:60px;"">+</div>","","","rt_window","HIT",",,,699,699,699,699,699,699,699,699,699,699,699,699,699,699,699,699,699,699,699,699,699,699,699,699,699,699,699,699,699,699,699,699,699,699,699,699,699,699,699,699,699,699,699,699,699,699,699,699,699,699,699,699,699,699,699,699,699,699,699,699,699,699,699,699,699,699,699,699,699,699,699,699,699,699,699,699,699,699,699,699,699,699,699,699,699,699,699,699,699,699,699,699,699,699,699,699,699,699,699,699,699,699,699,699,699,699,699,699,699,699,699,699,699,699,699,699,699,699,699,699,699,699,699,699,699,699,699,699,699,699,699,699,699,699,699,699,699,699,699,699,699,699,699,699,699,699,699,699,699,699,665,665,665,665,665,665,665,665,665,665,665,665,665,665,665,665,665,665,665,665,665,665,665,665,665,665,665,665,665,665,665,665,665,544,544,544,544,544,544,544,544,544,544,544,544,544,544,544,544,544,544,544,544,544,544,544,544,544,544,544,544,544,544,544,544,544,544,544,544,544,544,544,544,544,544,544,544,544,544,544,544,544,544,544,544,544,544,544,544,544",",,,477,477,477,477,477,477,477,477,477,477,477,477,477,477,477,477,477,477,477,477,477,477,477,477,477,477,477,477,477,477,477,477,477,477,477,477,477,477,477,477,477,477,477,477,477,477,477,477,477,477,477,477,477,477,477,477,477,477,477,477,477,477,477,477,477,477,477,477,477,477,477,477,477,477,477,477,477,477,477,477,477,477,477,477,477,477,477,477,477,477,477,477,477,477,477,477,477,477,477,477,477,477,477,477,477,477,477,477,477,477,477,477,477,477,477,477,477,477,477,477,477,477,477,477,477,477,477,477,477,477,477,477,477,477,477,477,477,477,477,477,477,477,477,477,477,477,477,477,477,477,450,450,450,450,450,450,450,450,450,450,450,450,450,450,450,450,450,450,450,450,450,450,450,450,450,450,450,450,450,450,450,450,450,312,312,312,312,312,312,312,312,312,312,312,312,312,312,312,312,312,312,312,312,312,312,312,312,312,312,312,312,312,312,312,312,312,312,312,312,312,312,312,312,312,312,312,312,312,312,312,312,312,312,312,312,312,312,312,312,312","0,5,11,15,21,25,31,36,41,45,50,56,61,66,71,75,81,86,90,96,101,105,111,116,121,126,131,136,141,146,151,156,161,166,171,176,181,185,191,196,201,206,211,216,221,225,231,236,241,246,251,256,261,265,271,276,281,286,291,296,301,305,311,316,321,326,331,336,341,346,351,356,360,366,371,376,381,385,391,396,401,406,411,416,421,425,431,436,441,446,450,456,461,465,471,476,481,486,490,496,501,505,511,515,521,525,531,536,541,546,551,556,561,566,570,576,580,586,590,596,601,605,611,615,621,626,631,636,641,646,651,656,660,666,671,677,681,686,691,696,700,706,711,716,721,725,731,736,741,746,751,755,761,766,771,776,780,786,791,796,800,806,811,816,821,825,830,836,840,846,851,856,861,866,871,876,881,885,891,895,901,906,911,916,920,926,931,936,941,945,951,955,961,965,970,976,981,985,991,995,1001,1005,1011,1016,1021,1026,1030,1036,1041,1045,1051,1056,1060,1066,1071,1076,1080,1086,1091,1096,1100,1106,1111,1116,1121,1125,1131,1136,1140,1146,1150,1156,1161,1166,1171,1175,1180,1185,1191,1196,1201,1205,1211","242","easy","","","","","",""
"","mousetracking","105","70786","0.0-4.0-5.12","75","","","","","<div style=""font-size:60px;"">+</div>","","","decision","ACQUIRE_TARG",",,,603,603,603,603,603,603,603,603,603,603,695,695",",,,371,371,371,371,371,371,371,371,371,371,467,467","0,5,11,15,21,26,31,35,41,45,51,55,61,66,70","14","easy","","","","","",""
