"success","trial_type","trial_index","time_elapsed","internal_node_id","rt","responses","partNum","view_history","time","stimulus","key_press","trial_status","epoch","choice","x-position","y-position","mice-times","nRecordings","block","reward","change_hue","target_size","location","outcome","response"
"true","fullscreen","0","385507","0.0-0.0","","","","","","","","","","","","","","","","","","","","",""
"","survey-text","1","395802","0.0-1.0","10292","{""Q0"":""adi_20241016_session1""}","""adi_20241016_session1""","","","","","","","","","","","","","","","","","",""
"","instructions","2","399753","0.0-2.0","3950","","","[{""page_index"":0,""viewing_time"":798},{""page_index"":1,""viewing_time"":535},{""page_index"":2,""viewing_time"":684},{""page_index"":3,""viewing_time"":1159},{""page_index"":4,""viewing_time"":774}]","Wed Oct 16 2024 21:43:32 GMT-0400 (Eastern Daylight Time)","","","","","","","","","","","","","","","",""
"","html-keyboard-response","3","405077","0.0-3.0-0.0","5323","","","","","EASY BLOCK <br> To Start/Continue, press y <br> To end the session, press n","89","continue_flag","","","","","","","","","","","","",""
"","mousetracking","4","405875","0.0-4.0-0.0","795","","","","","<div style=""font-size:60px;"">+</div>","","","ITI","FIX",",508,508,508,508,508,508,508,508,508,508,508,508,508,508,508,508,508,508,508,508,508,508,508,508,508,508,508,508,508,508,508,508,508,508,508,508,508,508,508,508,508,508,508,508,508,508,508,508,508,508,508,508,508,508,508,508,508,508,508,508,508,508,508,508,508,508,508,508,508,508,508,508,508,508,508,508,508,508,508,508,508,508,508,508,508,508,508,508,508,508,508,508,508,508,508,508,508,512,512,512,512,512,512,512,512,512,512,512,512,512,512,512,512,512,512,512,512,512,512,512,512,512,512,512,512,512,512,512,512,512,512,512,512,512,512,512,512,512,512,512,512,512,512,512,512,512,512,512,512,512,512,512,512,512,512,512,512,512",",333,333,333,333,333,333,333,333,333,333,333,333,333,333,333,333,333,333,333,333,333,333,333,333,333,333,333,333,333,333,333,333,333,333,333,333,333,333,333,333,333,333,333,333,333,333,333,333,333,333,333,333,333,333,333,333,333,333,333,333,333,333,333,333,333,333,333,333,333,333,333,333,333,333,333,333,333,333,333,333,333,333,333,333,333,333,333,333,333,333,333,333,333,333,333,333,333,318,318,318,318,318,318,318,318,318,318,318,318,318,318,318,318,318,318,318,318,318,318,318,318,318,318,318,318,318,318,318,318,318,318,318,318,318,318,318,318,318,318,318,318,318,318,318,318,318,318,318,318,318,318,318,318,318,318,318,318,318","0,6,11,16,21,26,31,37,41,46,51,56,62,66,72,76,81,86,91,97,101,107,111,116,122,126,132,136,141,146,152,156,161,167,171,176,181,186,191,197,201,206,211,216,221,226,232,236,242,246,251,256,261,266,271,276,281,286,291,296,302,306,312,316,321,327,331,337,341,346,352,356,361,366,371,377,381,386,391,395,401,407,411,417,421,426,432,436,441,446,451,456,462,466,471,476,481,486,491,495,501,507,511,516,521,526,531,536,541,546,551,556,561,566,570,576,582,586,591,596,601,606,611,616,621,626,630,636,641,647,651,656,661,666,670,676,681,686,690,696,700,706,711,715,721,726,730,736,741,746,751,755,761,766,770,776,781,786,791","158","easy","","","","","",""
"","mousetracking","5","406383","0.0-4.0-1.0","506","","","","","<div style=""font-size:60px;"">+</div>","","","fixation","FIX",",523,523,523,523,523,523,523,523,523,523,523,523,523,523,523,523,523,523,523,523,523,523,523,523,523,523,523,523,523,523,523,523,523,523,523,523,523,523,523,523,523,523,523,523,523,523,523,523,523,523,523,523,523,523,523,523,523,523,523,523,523,523,523,523,523,523,523,523,523,523,523,523,523,523,523,523,523,523,523,523,523,523,523,523,523,523,523,523,523,523,523,523,523,523,523,523,523,523,523,523,523",",307,307,307,307,307,307,307,307,307,307,307,307,307,307,307,307,307,307,307,307,307,307,307,307,307,307,307,307,307,307,307,307,307,307,307,307,307,307,307,307,307,307,307,307,307,307,307,307,307,307,307,307,307,307,307,307,307,307,307,307,307,307,307,307,307,307,307,307,307,307,307,307,307,307,307,307,307,307,307,307,307,307,307,307,307,307,307,307,307,307,307,307,307,307,307,307,307,307,307,307,307","0,5,11,15,21,25,31,35,40,45,50,55,60,66,70,75,81,85,91,95,100,106,110,115,121,125,131,136,140,146,150,155,161,165,171,176,180,186,190,195,201,205,211,216,220,225,231,235,240,245,250,255,260,265,271,275,280,285,290,295,300,305,311,315,320,326,330,335,340,345,351,355,360,366,370,375,380,385,391,395,400,406,410,415,420,425,431,435,440,446,450,455,460,465,471,475,480,486,490,495,500,505","101","easy","","","","","",""
"","mousetracking","6","406945","0.0-4.0-2.0","559","","","","","<div style=""font-size:60px;"">+</div>","","","delay","FIX",",523,523,523,523,523,523,523,523,523,523,523,523,523,523,523,523,523,523,523,523,523,523,523,523,523,523,523,523,523,523,523,523,523,523,523,523,523,523,523,523,523,523,523,523,523,523,523,523,523,523,523,523,523,523,523,523,523,523,523,523,523,523,523,523,523,523,523,523,523,523,523,523,523,523,523,523,523,523,523,523,523,523,523,523,523,523,523,523,523,523,523,523,523,523,523,523,523,523,523,523,523,523,523,523,523,523,523,523,523,523,523",",307,307,307,307,307,307,307,307,307,307,307,307,307,307,307,307,307,307,307,307,307,307,307,307,307,307,307,307,307,307,307,307,307,307,307,307,307,307,307,307,307,307,307,307,307,307,307,307,307,307,307,307,307,307,307,307,307,307,307,307,307,307,307,307,307,307,307,307,307,307,307,307,307,307,307,307,307,307,307,307,307,307,307,307,307,307,307,307,307,307,307,307,307,307,307,307,307,307,307,307,307,307,307,307,307,307,307,307,307,307,307","0,5,11,15,20,25,30,35,40,45,50,55,60,65,71,75,80,86,90,95,101,105,110,115,120,126,130,135,141,145,150,156,160,166,170,175,181,185,190,196,200,206,211,215,220,225,230,235,240,245,251,255,261,265,270,276,280,286,290,295,300,306,310,315,321,325,330,336,340,346,350,355,361,365,370,376,380,386,391,395,400,406,410,415,420,425,430,435,440,446,450,455,461,465,471,475,480,486,490,495,501,505,510,515,520,526,530,535,541,545,550,556","111","easy","","","","","",""
"","mousetracking","7","407033","0.0-4.0-3.0","87","","","","","<div style=""font-size:60px;"">+</div>","","","rt_catch","FIX",",523,523,523,523,523,523,523,523,523,523,523,523,523,523,523,523,523",",307,307,307,307,307,307,307,307,307,307,307,307,307,307,307,307,307","0,6,11,16,20,26,31,35,41,46,51,56,60,66,71,75,81,85","17","easy","","","","","",""
"","mousetracking","8","407410","0.0-4.0-4.0","375","","","","","<div style=""font-size:60px;"">+</div>","","","rt_window","MISSED",",523,523,523,523,523,523,523,523,523,523,523,523,523,523,523,523,523,523,523,523,523,523,523,523,523,523,523,523,523,523,523,523,523,523,523,523,523,523,523,523,523,523,523,523,523,523,523,523,523,523,523,523,523,523,523,523,523,523,523,523,523,523,523,523,523,523,523,523,523,523,523,523,523,523",",307,307,307,307,307,307,307,307,307,307,307,307,307,307,307,307,307,307,307,307,307,307,307,307,307,307,307,307,307,307,307,307,307,307,307,307,307,307,307,307,307,307,307,307,307,307,307,307,307,307,307,307,307,307,307,307,307,307,307,307,307,307,307,307,307,307,307,307,307,307,307,307,307,307","0,6,12,16,20,26,32,36,41,46,51,56,62,66,72,76,81,87,91,96,100,106,111,115,121,126,131,136,141,146,152,156,161,166,171,176,181,186,191,196,201,206,212,216,221,227,231,236,241,246,251,256,260,266,272,276,281,286,291,296,301,306,311,316,321,326,331,336,342,346,351,356,361,366,371","74","easy","","","","","",""
"","mousetracking","9","407461","0.0-4.0-5.0","50","","","","","<div style=""font-size:60px;"">+</div>","","","decision","ACQUIRE_TARG",",,579,579,579,579,579,579,635,635",",,240,240,240,240,240,240,184,184","0,5,11,16,20,26,31,35,41,45","9","easy","","","","","",""
"","mousetracking","10","407737","0.0-4.0-6.0","275","","","","","<div style=""font-size:60px;"">+</div>","","","targer_hold","SUCCESS",",,,,,658,658,658,658,658,658,658,658,658,658,658,658,658,658,658,658,658,658,658,658,658,658,658,658,658,658,658,658,658,658,658,658,658,658,658,658,658,658,658,658,658,658,658,658,658,658,658,658,658,658",",,,,,162,162,162,162,162,162,162,162,162,162,162,162,162,162,162,162,162,162,162,162,162,162,162,162,162,162,162,162,162,162,162,162,162,162,162,162,162,162,162,162,162,162,162,162,162,162,162,162,162,162","0,7,11,17,21,26,31,36,42,46,51,55,60,66,72,76,81,86,92,96,101,107,111,116,121,126,131,136,141,146,151,155,161,166,172,176,181,186,191,196,202,206,211,216,222,226,231,236,241,246,251,256,262,266,271","54","","10","","","","",""
"","html-keyboard-response","11","408742","0.0-4.0-7.0","null","","","","","<p style=color:red;>TOO SLOW - 20 points</p> SCORE: 0, Trial number: 0","null","","feedback","","","","","","easy","10","200","100","273.22330470336317,103.22330470336314","MISSED",""
"","mousetracking","12","409539","0.0-4.0-0.1","795","","","","","<div style=""font-size:60px;"">+</div>","","","ITI","FIX",",,514,514,514,514,514,514,514,514,514,514,514,514,514,514,514,514,514,514,514,514,514,514,514,514,514,514,514,514,514,514,514,514,514,514,514,514,514,514,514,514,514,514,514,514,514,514,514,514,514,514,514,514,514,514,514,514,514,514,514,514,514,514,514,514,514,514,514,514,514,514,514,514,514,514,514,514,514,514,514,514,514,514,514,514,514,514,514,514,514,514,514,514,514,514,514,514,523,523,523,523,523,523,523,523,523,523,523,523,523,523,523,523,523,523,523,523,523,523,523,523,523,523,523,523,523,523,523,523,523,523,523,523,523,523,523,523,523,523,523,523,523,523,523,523,523,523,523,523,523,523,523,523,523,523,523,523,523",",,323,323,323,323,323,323,323,323,323,323,323,323,323,323,323,323,323,323,323,323,323,323,323,323,323,323,323,323,323,323,323,323,323,323,323,323,323,323,323,323,323,323,323,323,323,323,323,323,323,323,323,323,323,323,323,323,323,323,323,323,323,323,323,323,323,323,323,323,323,323,323,323,323,323,323,323,323,323,323,323,323,323,323,323,323,323,323,323,323,323,323,323,323,323,323,323,311,311,311,311,311,311,311,311,311,311,311,311,311,311,311,311,311,311,311,311,311,311,311,311,311,311,311,311,311,311,311,311,311,311,311,311,311,311,311,311,311,311,311,311,311,311,311,311,311,311,311,311,311,311,311,311,311,311,311,311,311","0,6,11,16,21,27,31,36,41,46,52,56,61,67,71,76,82,86,91,97,101,107,110,116,121,127,131,136,142,146,151,156,161,167,171,176,182,186,191,196,201,206,211,216,221,227,232,236,241,247,251,256,262,267,271,276,282,286,291,297,301,307,312,316,321,327,331,336,342,346,351,357,361,366,371,376,381,387,391,396,402,406,411,416,421,427,431,436,442,446,451,456,462,467,471,476,482,486,492,496,501,506,511,517,521,526,531,536,541,546,551,556,562,566,571,576,581,586,591,596,601,607,611,616,621,627,631,636,642,646,651,657,661,666,671,677,681,686,690,696,701,706,711,716,721,727,731,736,742,746,751,756,761,766,771,776,782,786,791","158","easy","","","","","",""
"","mousetracking","13","410046","0.0-4.0-1.1","506","","","","","<div style=""font-size:60px;"">+</div>","","","fixation","FIX",",534,534,534,534,534,534,534,534,534,534,534,534,534,534,534,534,534,534,534,534,534,534,534,534,534,534,534,534,534,534,534,534,534,534,534,534,534,534,534,534,534,534,534,534,534,534,534,534,534,534,534,534,534,534,534,534,534,534,534,534,534,534,534,534,534,534,534,534,534,534,534,534,534,534,534,534,534,534,534,534,534,534,534,534,534,534,534,534,534,534,534,534,534,534,534,534,534,534,534,534,534",",298,298,298,298,298,298,298,298,298,298,298,298,298,298,298,298,298,298,298,298,298,298,298,298,298,298,298,298,298,298,298,298,298,298,298,298,298,298,298,298,298,298,298,298,298,298,298,298,298,298,298,298,298,298,298,298,298,298,298,298,298,298,298,298,298,298,298,298,298,298,298,298,298,298,298,298,298,298,298,298,298,298,298,298,298,298,298,298,298,298,298,298,298,298,298,298,298,298,298,298,298","0,6,11,16,21,26,31,36,40,46,51,56,61,66,71,76,81,86,91,97,101,106,110,116,121,126,131,136,141,146,151,156,161,167,171,176,180,186,191,196,201,206,211,216,221,226,231,236,241,246,251,256,261,266,271,276,281,286,291,296,301,306,311,316,321,325,331,336,341,346,351,356,361,366,371,376,381,386,391,396,400,406,411,416,421,426,431,436,441,446,451,456,461,466,471,476,481,486,491,496,501,506","101","easy","","","","","",""
"","mousetracking","14","410961","0.0-4.0-2.1","914","","","","","<div style=""font-size:60px;"">+</div>","","","delay","FIX",",534,534,534,534,534,534,534,534,534,534,534,534,534,534,534,534,534,534,534,534,534,534,534,534,534,534,534,534,534,534,534,534,534,534,534,534,534,534,534,534,534,534,534,534,534,534,534,534,534,534,534,534,534,534,534,534,534,534,534,534,534,534,534,534,534,534,534,534,534,534,534,534,534,534,534,534,534,534,534,534,534,534,534,534,534,534,534,534,534,534,534,534,534,534,534,534,534,534,534,534,534,534,534,534,534,534,534,534,534,534,534,534,534,534,534,534,534,534,534,534,534,534,534,534,534,534,534,534,534,534,534,534,534,534,534,534,534,534,534,534,534,534,534,534,534,534,534,534,534,534,534,534,534,534,534,534,534,534,534,534,534,534,534,534,534,534,534,534,534,534,534,534,534,534,534,534,534,534,534,534,534,534",",298,298,298,298,298,298,298,298,298,298,298,298,298,298,298,298,298,298,298,298,298,298,298,298,298,298,298,298,298,298,298,298,298,298,298,298,298,298,298,298,298,298,298,298,298,298,298,298,298,298,298,298,298,298,298,298,298,298,298,298,298,298,298,298,298,298,298,298,298,298,298,298,298,298,298,298,298,298,298,298,298,298,298,298,298,298,298,298,298,298,298,298,298,298,298,298,298,298,298,298,298,298,298,298,298,298,298,298,298,298,298,298,298,298,298,298,298,298,298,298,298,298,298,298,298,298,298,298,298,298,298,298,298,298,298,298,298,298,298,298,298,298,298,298,298,298,298,298,298,298,298,298,298,298,298,298,298,298,298,298,298,298,298,298,298,298,298,298,298,298,298,298,298,298,298,298,298,298,298,298,298,298","0,6,11,15,21,25,31,35,41,46,50,55,61,65,70,76,80,86,91,95,101,106,111,115,121,126,130,136,140,146,151,156,160,166,171,175,181,185,190,196,201,205,211,216,220,226,231,235,241,246,250,256,261,265,271,276,280,286,291,295,301,305,310,316,320,326,331,335,341,346,350,356,360,366,371,375,381,386,390,396,401,405,411,416,420,426,430,435,441,445,451,456,460,466,471,475,481,485,490,496,500,506,511,515,521,526,530,536,540,546,551,556,560,566,570,575,581,585,590,596,600,606,611,615,621,625,630,636,640,646,651,655,661,666,670,676,681,685,690,696,700,706,711,715,721,726,730,736,740,746,751,755,760,766,770,775,781,785,791,796,800,806,811,815,821,825,830,836,840,846,851,855,861,865,870,876,880,885,891,896,900,906,910","182","easy","","","","","",""
"","mousetracking","15","411050","0.0-4.0-3.1","87","","","","","<div style=""font-size:60px;"">+</div>","","","rt_catch","FIX",",534,534,534,534,534,534,534,534,534,534,534,534,534,534,534,534,534",",298,298,298,298,298,298,298,298,298,298,298,298,298,298,298,298,298","1,6,12,16,21,27,31,36,42,46,52,56,61,67,71,76,81,86","17","easy","","","","","",""
"","mousetracking","16","411384","0.0-4.0-4.1","333","","","","","<div style=""font-size:60px;"">+</div>","","","rt_window","HIT",",534,534,534,534,534,534,534,534,534,534,534,534,534,534,534,534,534,534,534,534,534,534,534,534,534,534,534,534,534,534,534,534,534,534,534,534,534,534,534,534,534,534,534,534,534,534,534,534,534,534,534,534,534,534,534,534,534,534,534,534,534,534,534,534,534,534",",298,298,298,298,298,298,298,298,298,298,298,298,298,298,298,298,298,298,298,298,298,298,298,298,298,298,298,298,298,298,298,298,298,298,298,298,298,298,298,298,298,298,298,298,298,298,298,298,298,298,298,298,298,298,298,298,298,298,298,298,298,298,298,298,298,298","0,5,11,15,21,25,31,36,40,46,51,55,60,66,71,76,81,85,91,95,100,106,110,115,121,125,131,135,140,146,150,155,161,165,171,176,180,186,191,195,201,205,211,216,220,226,230,235,241,245,251,256,260,266,271,275,280,286,290,295,300,306,310,315,321,325,331","66","easy","","","","","",""
"","mousetracking","17","411787","0.0-4.0-5.1","null","","","","","<div style=""font-size:60px;"">+</div>","","","decision","WRONG_TARG",",,,,,,,422,422,422,422,422,422,422,422,422,422,422,422,422,422,422,422,422,422,422,422,422,422,422,422,422,422,422,422,422,422,422,422,422,422,422,422,422,422,422,422,422,422,422,422,422,422,422,422,422,422,422,422,422,422,422,422,422,422,422,422,422,422,422,422,422,422,422,422,422,422,422,422,422,362",",,,,,,,409,409,409,409,409,409,409,409,409,409,409,409,409,409,409,409,409,409,409,409,409,409,409,409,409,409,409,409,409,409,409,409,409,409,409,409,409,409,409,409,409,409,409,409,409,409,409,409,409,409,409,409,409,409,409,409,409,409,409,409,409,409,409,409,409,409,409,409,409,409,409,409,409,477","0,6,11,17,21,26,30,36,41,46,51,56,61,66,71,76,81,86,91,96,101,106,111,116,122,126,131,136,141,146,151,157,161,166,171,177,181,186,192,196,202,206,211,217,221,226,231,236,242,246,251,256,261,266,271,276,281,286,290,296,302,306,311,316,322,326,331,336,341,347,351,356,361,366,371,376,381,387,391,396,401","80","easy","","","","","",""
"","mousetracking","18","412071","0.0-4.0-6.1","282","","","","","<div style=""font-size:60px;"">+</div>","","","targer_hold","SUCCESS",",,,,,,362,362,362,362,362,362,362,362,362,362,362,362,362,362,362,362,362,362,362,362,362,362,362,362,362,362,362,362,362,362,362,362,362,362,362,362,362,362,362,362,362,362,362,362,362,362,362,362,362,362,362",",,,,,,478,478,478,478,478,478,478,478,478,478,478,478,478,478,478,478,478,478,478,478,478,478,478,478,478,478,478,478,478,478,478,478,478,478,478,478,478,478,478,478,478,478,478,478,478,478,478,478,478,478,478","0,6,11,15,21,26,30,35,41,46,51,55,61,66,71,75,81,86,90,96,101,106,111,115,120,126,130,136,141,145,151,156,160,166,171,175,181,186,190,196,201,206,211,216,221,226,230,236,241,246,250,256,261,265,271,276,281","56","","10","","","","",""
"","html-keyboard-response","19","413072","0.0-4.0-7.1","null","","","","","<p style=color:red;>REACH ERROR - 20 points</p> SCORE: 0, Trial number: 0","null","","feedback","","","","","","easy","10","220","100","626.7766952966368,456.77669529663683","REACH ERROR",""
"","mousetracking","20","413381","0.0-4.0-0.2","307","","","","","<div style=""font-size:60px;"">+</div>","","","ITI","FIX",",535,535,535,535,535,535,535,535,535,535,535,535,535,535,535,535,535,535,535,535,535,535,535,535,535,535,535,535,535,535,535,535,535,535,535,535,535,535,535,535,535,535,535,535,535,535,535,535,535,535,535,535,535,535,535,535,535,535,535,535,535",",292,292,292,292,292,292,292,292,292,292,292,292,292,292,292,292,292,292,292,292,292,292,292,292,292,292,292,292,292,292,292,292,292,292,292,292,292,292,292,292,292,292,292,292,292,292,292,292,292,292,292,292,292,292,292,292,292,292,292,292,292","0,6,11,16,21,26,31,36,41,46,51,56,61,66,71,76,81,87,91,96,102,106,111,116,121,126,131,137,141,147,151,156,161,166,171,176,181,187,191,196,201,206,211,216,221,226,231,235,241,246,252,256,261,266,271,276,281,286,290,296,301,306","61","easy","","","","","",""
"","mousetracking","21","413905","0.0-4.0-1.2","523","","","","","<div style=""font-size:60px;"">+</div>","","","fixation","FIX",",,,,531,531,531,531,531,531,531,531,531,531,531,531,531,531,531,531,531,531,531,531,531,531,531,531,531,531,531,531,531,531,531,531,531,531,531,531,531,531,531,531,531,531,531,531,531,531,531,531,531,531,531,531,531,531,531,531,531,531,531,531,531,531,531,531,531,531,531,531,531,531,531,531,531,531,531,531,531,531,531,531,531,531,531,531,531,531,531,531,531,531,531,531,531,531,531,531,531,531,531,531,531",",,,,296,296,296,296,296,296,296,296,296,296,296,296,296,296,296,296,296,296,296,296,296,296,296,296,296,296,296,296,296,296,296,296,296,296,296,296,296,296,296,296,296,296,296,296,296,296,296,296,296,296,296,296,296,296,296,296,296,296,296,296,296,296,296,296,296,296,296,296,296,296,296,296,296,296,296,296,296,296,296,296,296,296,296,296,296,296,296,296,296,296,296,296,296,296,296,296,296,296,296,296,296","0,6,12,16,21,27,31,36,42,46,52,56,61,66,71,76,82,86,91,95,101,106,111,116,121,126,131,136,141,146,152,156,161,166,171,176,181,186,192,196,201,206,211,216,221,226,232,236,241,246,251,256,261,266,272,276,281,287,291,297,301,306,311,316,321,326,332,336,341,347,351,356,362,366,371,376,381,386,391,396,400,406,412,416,421,426,431,436,441,446,452,457,461,466,472,476,481,487,491,496,501,506,512,516,521","104","easy","","","","","",""
"","mousetracking","22","414626","0.0-4.0-2.2","720","","","","","<div style=""font-size:60px;"">+</div>","","","delay","FIX",",531,531,531,531,531,531,531,531,531,531,531,531,531,531,531,531,531,531,531,531,531,531,531,531,531,531,531,531,531,531,531,531,531,531,531,531,531,531,531,531,531,531,531,531,531,531,531,531,531,531,531,531,531,531,531,531,531,531,531,531,531,531,531,531,531,531,531,531,531,531,531,531,531,531,531,531,531,531,531,531,531,531,531,531,531,531,531,531,531,531,531,531,531,531,531,531,531,531,531,531,531,531,531,531,531,531,531,531,531,531,531,531,531,531,531,531,531,531,531,531,531,531,531,531,531,531,531,531,531,531,531,531,531,531,531,531,531,531,531,531,531,531,531",",296,296,296,296,296,296,296,296,296,296,296,296,296,296,296,296,296,296,296,296,296,296,296,296,296,296,296,296,296,296,296,296,296,296,296,296,296,296,296,296,296,296,296,296,296,296,296,296,296,296,296,296,296,296,296,296,296,296,296,296,296,296,296,296,296,296,296,296,296,296,296,296,296,296,296,296,296,296,296,296,296,296,296,296,296,296,296,296,296,296,296,296,296,296,296,296,296,296,296,296,296,296,296,296,296,296,296,296,296,296,296,296,296,296,296,296,296,296,296,296,296,296,296,296,296,296,296,296,296,296,296,296,296,296,296,296,296,296,296,296,296,296,296","0,5,11,16,20,26,30,35,41,45,51,56,60,66,70,75,81,85,91,96,100,106,111,115,121,125,131,136,140,146,150,155,161,165,171,176,180,186,191,195,201,205,211,216,220,226,231,235,241,246,251,256,260,266,271,275,280,286,291,296,300,306,311,315,320,326,330,335,341,345,351,355,360,366,371,376,380,386,391,395,400,406,411,416,420,426,431,435,441,445,451,456,460,466,471,475,481,485,491,496,500,506,511,515,521,525,531,536,540,546,550,555,561,565,571,576,580,586,590,595,601,605,611,616,620,626,630,635,641,645,651,656,660,666,670,675,681,685,691,696,700,706,711,715","143","easy","","","","","",""
"","mousetracking","23","414711","0.0-4.0-3.2","84","","","","","<div style=""font-size:60px;"">+</div>","","","rt_catch","FIX",",531,531,531,531,531,531,531,531,531,531,531,531,531,531,531,531",",296,296,296,296,296,296,296,296,296,296,296,296,296,296,296,296","0,6,11,16,22,26,31,35,41,46,51,55,61,66,71,76,81","16","easy","","","","","",""
"","mousetracking","24","415067","0.0-4.0-4.2","355","","","","","<div style=""font-size:60px;"">+</div>","","","rt_window","HIT",",531,531,531,531,531,531,531,531,531,531,531,531,531,531,531,531,531,531,531,531,531,531,531,531,531,531,531,531,531,531,531,531,531,531,531,531,531,531,531,531,531,531,531,531,531,531,531,531,531,531,531,531,531,531,531,531,531,531,531,531,531,531,531,531,531,531,531,531,531,531",",296,296,296,296,296,296,296,296,296,296,296,296,296,296,296,296,296,296,296,296,296,296,296,296,296,296,296,296,296,296,296,296,296,296,296,296,296,296,296,296,296,296,296,296,296,296,296,296,296,296,296,296,296,296,296,296,296,296,296,296,296,296,296,296,296,296,296,296,296,296","0,5,11,16,20,26,31,36,40,46,50,56,61,65,71,76,80,86,91,95,101,106,110,116,121,125,131,136,140,146,150,156,161,165,171,176,181,186,191,196,201,205,211,216,220,226,231,236,241,245,251,256,260,266,271,275,281,286,291,296,300,306,310,316,321,325,331,336,340,346,351","70","easy","","","","","",""
"","mousetracking","25","415144","0.0-4.0-5.2","76","","","","","<div style=""font-size:60px;"">+</div>","","","decision","ACQUIRE_TARG",",,,,,,,638,638,638,638,638,638,638,663,663",",,,,,,,431,431,431,431,431,431,431,465,465","0,5,10,15,21,26,30,35,40,46,50,55,61,65,70,76","15","easy","","","","","",""
"","mousetracking","26","415420","0.0-4.0-6.2","275","","","","","<div style=""font-size:60px;"">+</div>","","","targer_hold","SUCCESS",",,,,,675,675,675,675,675,675,675,675,675,675,675,675,675,675,675,675,675,675,675,675,675,675,675,675,675,675,675,675,675,675,675,675,675,675,675,675,675,675,675,675,675,675,675,675,675,675,675,675,675,675",",,,,,481,481,481,481,481,481,481,481,481,481,481,481,481,481,481,481,481,481,481,481,481,481,481,481,481,481,481,481,481,481,481,481,481,481,481,481,481,481,481,481,481,481,481,481,481,481,481,481,481,481","0,5,11,15,20,26,31,35,40,45,50,55,60,66,70,75,81,85,91,95,100,105,111,116,120,126,130,135,140,145,150,155,161,165,170,176,180,185,191,195,200,206,210,215,221,225,231,236,240,246,251,255,260,265,270","54","","10","","","","",""
"","html-keyboard-response","27","416422","0.0-4.0-7.2","null","","","","","<p style=color:green;>SUCCESS! + 10 points</p> SCORE: 10, Trial number: 1","null","","feedback","","","","","","easy","10","200","100","273.22330470336317,456.77669529663683","SUCCESS!",""
"","mousetracking","28","416738","0.0-4.0-0.3","316","","","","","<div style=""font-size:60px;"">+</div>","","","ITI","FIX",",,,527,527,527,527,527,527,527,527,527,527,527,527,527,527,527,527,527,527,527,527,527,527,527,527,527,527,527,527,527,527,527,527,527,527,527,527,527,527,527,527,527,527,527,527,527,527,527,527,527,527,527,527,527,527,527,527,527,527,527,527",",,,297,297,297,297,297,297,297,297,297,297,297,297,297,297,297,297,297,297,297,297,297,297,297,297,297,297,297,297,297,297,297,297,297,297,297,297,297,297,297,297,297,297,297,297,297,297,297,297,297,297,297,297,297,297,297,297,297,297,297,297","0,6,11,16,21,26,31,36,42,46,51,56,62,66,71,77,81,86,91,97,101,106,111,116,121,127,131,136,141,146,151,157,161,166,170,176,181,187,191,196,202,206,211,217,221,226,231,236,241,246,251,256,261,266,271,276,281,286,292,296,301,307,311","62","easy","","","","","",""
"","mousetracking","29","417246","0.0-4.0-1.3","507","","","","","<div style=""font-size:60px;"">+</div>","","","fixation","FIX",",528,528,528,528,528,528,528,528,528,528,528,528,528,528,528,528,528,528,528,528,528,528,528,528,528,528,528,528,528,528,528,528,528,528,528,528,528,528,528,528,528,528,528,528,528,528,528,528,528,528,528,528,528,528,528,528,528,528,528,528,528,528,528,528,528,528,528,528,528,528,528,528,528,528,528,528,528,528,528,528,528,528,528,528,528,528,528,528,528,528,528,528,528,528,528,528,528,528,528,528,528",",298,298,298,298,298,298,298,298,298,298,298,298,298,298,298,298,298,298,298,298,298,298,298,298,298,298,298,298,298,298,298,298,298,298,298,298,298,298,298,298,298,298,298,298,298,298,298,298,298,298,298,298,298,298,298,298,298,298,298,298,298,298,298,298,298,298,298,298,298,298,298,298,298,298,298,298,298,298,298,298,298,298,298,298,298,298,298,298,298,298,298,298,298,298,298,298,298,298,298,298,298","0,6,11,16,21,26,31,35,41,46,51,56,60,66,71,75,81,86,91,96,100,106,111,115,121,125,131,136,140,146,151,155,161,165,171,176,180,186,191,195,201,205,211,216,220,226,232,236,241,246,251,256,260,266,272,276,281,286,291,296,300,306,311,316,321,326,331,336,340,346,352,356,361,365,371,376,380,386,391,395,401,405,411,416,420,426,431,435,441,445,451,456,461,466,470,476,481,486,491,496,500,506","101","easy","","","","","",""
"","mousetracking","30","417904","0.0-4.0-2.3","656","","","","","<div style=""font-size:60px;"">+</div>","","","delay","FIX",",528,528,528,528,528,528,528,528,528,528,528,528,528,528,528,528,528,528,528,528,528,528,528,528,528,528,528,528,528,528,528,528,528,528,528,528,528,528,528,528,528,528,528,528,528,528,528,528,528,528,528,528,528,528,528,528,528,528,528,528,528,528,528,528,528,528,528,528,528,528,528,528,528,528,528,528,528,528,528,528,528,528,528,528,528,528,528,528,528,528,528,528,528,528,528,528,528,528,528,528,528,528,528,528,528,528,528,528,528,528,528,528,528,528,528,528,528,528,528,528,528,528,528,528,528,528,528,528,528,528",",298,298,298,298,298,298,298,298,298,298,298,298,298,298,298,298,298,298,298,298,298,298,298,298,298,298,298,298,298,298,298,298,298,298,298,298,298,298,298,298,298,298,298,298,298,298,298,298,298,298,298,298,298,298,298,298,298,298,298,298,298,298,298,298,298,298,298,298,298,298,298,298,298,298,298,298,298,298,298,298,298,298,298,298,298,298,298,298,298,298,298,298,298,298,298,298,298,298,298,298,298,298,298,298,298,298,298,298,298,298,298,298,298,298,298,298,298,298,298,298,298,298,298,298,298,298,298,298,298,298","0,6,12,16,22,26,32,36,41,47,51,56,61,66,72,76,81,87,91,96,102,106,112,116,121,127,131,136,142,146,152,156,161,167,171,176,182,186,191,196,201,206,212,216,221,227,231,236,242,246,252,256,261,267,271,276,282,286,292,296,301,307,311,316,322,326,332,336,341,347,351,356,361,366,371,376,381,386,392,396,401,407,411,416,421,426,432,436,441,446,451,456,461,466,472,476,481,486,491,496,501,506,512,516,521,526,531,536,541,546,552,556,561,566,571,576,581,586,592,596,601,607,611,616,621,626,631,636,641,646,652","130","easy","","","","","",""
"","mousetracking","31","417992","0.0-4.0-3.3","86","","","","","<div style=""font-size:60px;"">+</div>","","","rt_catch","FIX",",528,528,528,528,528,528,528,528,528,528,528,528,528,528,528,528,528",",298,298,298,298,298,298,298,298,298,298,298,298,298,298,298,298,298","0,5,11,16,20,26,31,35,40,45,51,56,60,66,70,75,80,85","17","easy","","","","","",""
"","mousetracking","32","418300","0.0-4.0-4.3","307","","","","","<div style=""font-size:60px;"">+</div>","","","rt_window","HIT",",,528,528,528,528,528,528,528,528,528,528,528,528,528,528,528,528,528,528,528,528,528,528,528,528,528,528,528,528,528,528,528,528,528,528,528,528,528,528,528,528,528,528,528,528,528,528,528,528,528,528,528,528,528,528,528,528,528,528,528,528",",,298,298,298,298,298,298,298,298,298,298,298,298,298,298,298,298,298,298,298,298,298,298,298,298,298,298,298,298,298,298,298,298,298,298,298,298,298,298,298,298,298,298,298,298,298,298,298,298,298,298,298,298,298,298,298,298,298,298,298,298","0,6,10,16,21,25,31,35,40,46,51,55,61,66,71,76,80,86,91,95,101,106,110,116,121,125,131,136,140,146,151,155,161,166,171,176,180,186,191,195,201,206,211,216,220,226,231,235,241,246,250,256,261,265,271,276,280,286,291,296,300,306","61","easy","","","","","",""
"","mousetracking","33","418708","0.0-4.0-5.3","null","","","","","<div style=""font-size:60px;"">+</div>","","","decision","WRONG_TARG",",,,,,,,468,468,468,468,468,468,468,468,468,468,468,468,468,468,468,468,468,468,468,468,468,468,468,468,468,468,468,468,468,468,468,468,468,468,468,468,468,468,468,468,468,468,468,468,468,468,468,468,468,468,468,468,468,468,468,468,468,468,468,468,468,468,468,468,468,468,468,468,468,468,468,468,468,468,468",",,,,,,,244,244,244,244,244,244,244,244,244,244,244,244,244,244,244,244,244,244,244,244,244,244,244,244,244,244,244,244,244,244,244,244,244,244,244,244,244,244,244,244,244,244,244,244,244,244,244,244,244,244,244,244,244,244,244,244,244,244,244,244,244,244,244,244,244,244,244,244,244,244,244,244,244,244,244","0,6,10,16,20,25,30,36,40,46,50,56,61,65,70,75,80,86,90,96,100,105,110,115,121,125,130,135,140,145,150,155,160,165,170,176,180,186,190,196,201,205,211,215,220,225,230,236,240,245,251,255,260,265,271,276,280,286,290,296,301,305,311,315,320,326,330,336,341,345,351,355,360,366,371,375,380,386,390,396,400,406","81","easy","","","","","",""
"","mousetracking","34","418987","0.0-4.0-6.3","278","","","","","<div style=""font-size:60px;"">+</div>","","","targer_hold","SUCCESS",",,,,,362,362,362,362,362,362,362,362,362,362,362,362,362,362,362,362,362,362,362,362,362,362,362,362,362,362,362,362,362,362,362,362,362,362,362,362,362,362,362,362,362,362,362,362,362,362,362,362,362,362,362",",,,,,140,140,140,140,140,140,140,140,140,140,140,140,140,140,140,140,140,140,140,140,140,140,140,140,140,140,140,140,140,140,140,140,140,140,140,140,140,140,140,140,140,140,140,140,140,140,140,140,140,140,140","0,6,11,15,21,25,31,35,40,46,50,55,60,65,71,76,80,86,90,96,100,106,111,115,121,126,130,136,140,145,151,155,160,166,170,175,181,185,191,196,200,206,210,215,221,225,231,236,240,246,250,255,261,265,271,276","55","","50","","","","",""
"","html-keyboard-response","35","419992","0.0-4.0-7.3","null","","","","","<p style=color:red;>REACH ERROR - 20 points</p> SCORE: 10, Trial number: 1","null","","feedback","","","","","","easy","50","220","50","626.7766952966368,103.22330470336314","REACH ERROR",""
"","mousetracking","36","420301","0.0-4.0-0.4","307","","","","","<div style=""font-size:60px;"">+</div>","","","ITI","FIX",",529,529,529,529,529,529,529,529,529,529,529,529,529,529,529,529,529,529,529,529,529,529,529,529,529,529,529,529,529,529,529,529,529,529,529,529,529,529,529,529,529,529,529,529,529,529,529,529,529,529,529,529,529,529,529,529,529,529,529,529,529",",300,300,300,300,300,300,300,300,300,300,300,300,300,300,300,300,300,300,300,300,300,300,300,300,300,300,300,300,300,300,300,300,300,300,300,300,300,300,300,300,300,300,300,300,300,300,300,300,300,300,300,300,300,300,300,300,300,300,300,300,300","0,6,11,15,21,26,31,36,41,46,51,56,61,67,71,76,81,86,91,96,101,107,111,116,121,126,131,136,141,146,151,156,161,166,171,176,181,186,191,196,202,207,211,216,221,226,230,236,241,247,251,256,261,266,271,276,281,287,291,296,302,306","61","easy","","","","","",""
"","mousetracking","37","420810","0.0-4.0-1.4","507","","","","","<div style=""font-size:60px;"">+</div>","","","fixation","FIX",",527,527,527,527,527,527,527,527,527,527,527,527,527,527,527,527,527,527,527,527,527,527,527,527,527,527,527,527,527,527,527,527,527,527,527,527,527,527,527,527,527,527,527,527,527,527,527,527,527,527,527,527,527,527,527,527,527,527,527,527,527,527,527,527,527,527,527,527,527,527,527,527,527,527,527,527,527,527,527,527,527,527,527,527,527,527,527,527,527,527,527,527,527,527,527,527,527,527,527,527,527",",300,300,300,300,300,300,300,300,300,300,300,300,300,300,300,300,300,300,300,300,300,300,300,300,300,300,300,300,300,300,300,300,300,300,300,300,300,300,300,300,300,300,300,300,300,300,300,300,300,300,300,300,300,300,300,300,300,300,300,300,300,300,300,300,300,300,300,300,300,300,300,300,300,300,300,300,300,300,300,300,300,300,300,300,300,300,300,300,300,300,300,300,300,300,300,300,300,300,300,300,300","0,5,11,15,20,26,30,35,41,45,50,55,60,65,71,75,80,85,90,95,100,105,111,115,120,126,130,135,140,145,151,155,160,166,170,175,181,185,191,195,200,206,210,215,221,225,231,235,241,245,250,255,260,265,271,275,280,285,291,295,300,306,310,315,321,326,330,335,341,345,350,356,360,366,370,375,381,385,391,396,400,406,410,415,421,425,431,435,440,446,450,455,460,465,471,475,480,486,490,495,500,505","101","easy","","","","","",""
"","mousetracking","38","421379","0.0-4.0-2.4","568","","","","","<div style=""font-size:60px;"">+</div>","","","delay","FIX",",527,527,527,527,527,527,527,527,527,527,527,527,527,527,527,527,527,527,527,527,527,527,527,527,527,527,527,527,527,527,527,527,527,527,527,527,527,527,527,527,527,527,527,527,527,527,527,527,527,527,527,527,527,527,527,527,527,527,527,527,527,527,527,527,527,527,527,527,527,527,527,527,527,527,527,527,527,527,527,527,527,527,527,527,527,527,527,527,527,527,527,527,527,527,527,527,527,527,527,527,527,527,527,527,527,527,527,527,527,527,527,527,527",",303,303,303,303,303,303,303,303,303,303,303,303,303,303,303,303,303,303,303,303,303,303,303,303,303,303,303,303,303,303,303,303,303,303,303,303,303,303,303,303,303,303,303,303,303,303,303,303,303,303,303,303,303,303,303,303,303,303,303,303,303,303,303,303,303,303,303,303,303,303,303,303,303,303,303,303,303,303,303,303,303,303,303,303,303,303,303,303,303,303,303,303,303,303,303,303,303,303,303,303,303,303,303,303,303,303,303,303,303,303,303,303,303","0,6,11,16,20,25,31,36,40,46,50,55,61,65,71,76,80,86,91,95,101,106,111,116,120,126,131,135,141,146,151,156,160,166,171,175,181,186,191,196,200,206,211,215,221,226,231,236,240,246,251,255,261,266,270,275,281,285,291,296,300,306,311,316,321,326,331,336,341,346,351,356,361,366,371,375,381,386,392,396,401,406,411,415,421,426,431,436,441,446,451,455,461,466,471,476,480,486,491,495,501,506,511,516,521,526,531,535,541,545,551,556,561,566","113","easy","","","","","",""
"","mousetracking","39","421466","0.0-4.0-3.4","86","","","","","<div style=""font-size:60px;"">+</div>","","","rt_catch","FIX",",527,527,527,527,527,527,527,527,527,527,527,527,527,527,527,527,527",",303,303,303,303,303,303,303,303,303,303,303,303,303,303,303,303,303","0,5,11,16,21,26,31,36,41,46,50,56,61,66,71,76,81,86","17","easy","","","","","",""
"","mousetracking","40","421844","0.0-4.0-4.4","376","","","","","<div style=""font-size:60px;"">+</div>","","","rt_window","MISSED",",527,527,527,527,527,527,527,527,527,527,527,527,527,527,527,527,527,527,527,527,527,527,527,527,527,527,527,527,527,527,527,527,527,527,527,527,527,527,527,527,527,527,527,527,527,527,527,527,527,527,527,527,527,527,527,527,527,527,527,527,527,527,527,527,527,527,527,527,527,527,527,527,527,527,527",",303,303,303,303,303,303,303,303,303,303,303,303,303,303,303,303,303,303,303,303,303,303,303,303,303,303,303,303,303,303,303,303,303,303,303,303,303,303,303,303,303,303,303,303,303,303,303,303,303,303,303,303,303,303,303,303,303,303,303,303,303,303,303,303,303,303,303,303,303,303,303,303,303,303,303","1,6,12,16,21,26,31,36,41,47,51,56,61,66,72,76,81,87,91,96,102,106,111,117,121,126,131,136,141,146,151,157,161,166,171,176,182,186,192,196,201,207,212,216,221,226,231,236,241,246,252,256,261,266,271,276,281,286,292,296,301,306,312,316,321,327,331,336,341,346,351,357,361,366,371,376","75","easy","","","","","",""
"","mousetracking","41","422110","0.0-4.0-5.4","264","","","","","<div style=""font-size:60px;"">+</div>","","","decision","ACQUIRE_TARG",",527,527,527,527,527,527,527,527,527,527,527,527,527,527,527,527,527,509,509,509,509,509,509,509,509,509,509,509,509,509,509,509,509,509,509,509,509,509,509,509,509,509,509,509,509,509,509,509,509,509,368,368",",303,303,303,303,303,303,303,303,303,303,303,303,303,303,303,303,303,319,319,319,319,319,319,319,319,319,319,319,319,319,319,319,319,319,319,319,319,319,319,319,319,319,319,319,319,319,319,319,319,319,478,478","0,6,11,15,20,26,30,35,41,45,51,55,60,66,71,75,81,85,90,96,100,106,110,115,121,126,130,135,140,146,151,155,160,166,171,175,181,185,190,195,201,205,211,216,220,226,230,235,241,245,251,256,261","52","easy","","","","","",""
"","mousetracking","42","422387","0.0-4.0-6.4","276","","","","","<div style=""font-size:60px;"">+</div>","","","targer_hold","SUCCESS",",,,,,362,362,362,362,362,362,362,362,362,362,362,362,362,362,362,362,362,362,362,362,362,362,362,362,362,362,362,362,362,362,362,362,362,362,362,362,362,362,362,362,362,362,362,362,362,362,362,362,362,362",",,,,,486,486,486,486,486,486,486,486,486,486,486,486,486,486,486,486,486,486,486,486,486,486,486,486,486,486,486,486,486,486,486,486,486,486,486,486,486,486,486,486,486,486,486,486,486,486,486,486,486,486","0,5,11,15,20,25,31,35,40,46,50,55,60,65,71,75,80,86,91,95,100,106,110,115,121,126,131,136,140,145,151,156,161,165,171,175,180,186,190,196,200,206,210,215,221,225,231,236,240,246,251,255,261,265,271","54","","50","","","","",""
"","html-keyboard-response","43","423388","0.0-4.0-7.4","null","","","","","<p style=color:red;>TOO SLOW - 20 points</p> SCORE: 10, Trial number: 1","null","","feedback","","","","","","easy","50","230","50","626.7766952966368,456.77669529663683","MISSED",""
"","mousetracking","44","423697","0.0-4.0-0.5","308","","","","","<div style=""font-size:60px;"">+</div>","","","ITI","FIX",",516,516,516,516,516,516,516,516,516,516,516,516,516,516,516,516,516,516,516,516,516,516,516,516,516,516,516,516,516,516,516,516,516,516,516,516,516,516,516,516,516,516,516,516,516,516,516,516,516,516,516,516,516,516,516,516,516,516,516,516,516",",302,302,302,302,302,302,302,302,302,302,302,302,302,302,302,302,302,302,302,302,302,302,302,302,302,302,302,302,302,302,302,302,302,302,302,302,302,302,302,302,302,302,302,302,302,302,302,302,302,302,302,302,302,302,302,302,302,302,302,302,302","1,6,11,17,21,27,31,36,41,47,51,56,62,66,71,77,81,86,92,96,101,107,111,116,122,126,131,137,141,146,152,156,161,166,171,176,181,186,191,196,201,206,211,216,221,226,231,236,241,247,251,256,262,266,271,277,281,286,291,296,301,307","61","easy","","","","","",""
"","mousetracking","45","424202","0.0-4.0-1.5","504","","","","","<div style=""font-size:60px;"">+</div>","","","fixation","FIX",",516,516,516,516,516,516,516,516,516,516,516,516,516,516,516,516,516,516,516,516,516,516,516,516,516,516,516,516,516,516,516,516,516,516,516,516,516,516,516,516,516,516,516,516,516,516,516,516,516,516,516,516,516,516,516,516,516,516,516,516,516,516,516,516,516,516,516,516,516,516,516,516,516,516,516,516,516,516,516,516,516,516,516,516,516,516,516,516,516,516,516,516,516,516,516,516,516,516,516,516",",302,302,302,302,302,302,302,302,302,302,302,302,302,302,302,302,302,302,302,302,302,302,302,302,302,302,302,302,302,302,302,302,302,302,302,302,302,302,302,302,302,302,302,302,302,302,302,302,302,302,302,302,302,302,302,302,302,302,302,302,302,302,302,302,302,302,302,302,302,302,302,302,302,302,302,302,302,302,302,302,302,302,302,302,302,302,302,302,302,302,302,302,302,302,302,302,302,302,302,302","0,6,11,16,21,26,31,35,41,46,51,56,60,66,71,75,81,86,91,96,101,106,111,116,121,126,131,135,141,146,152,156,161,165,170,176,181,186,191,196,201,206,212,216,221,225,231,235,241,246,251,256,260,266,271,276,281,286,291,296,301,307,311,316,321,326,332,336,341,346,351,356,361,366,372,376,381,386,391,396,401,406,412,415,421,426,431,436,440,446,451,455,461,466,471,476,481,486,491,496,501","100","easy","","","","","",""
"","mousetracking","46","424746","0.0-4.0-2.5","542","","","","","<div style=""font-size:60px;"">+</div>","","","delay","FIX",",524,524,524,524,524,524,524,524,524,524,524,524,524,524,524,524,524,524,524,524,524,524,524,524,524,524,524,524,524,524,524,524,524,524,524,524,524,524,524,524,524,524,524,524,524,524,524,524,524,524,524,524,524,524,524,524,524,524,524,524,524,524,524,524,524,524,524,524,524,524,524,524,524,524,524,524,524,524,524,524,524,524,524,524,524,524,524,524,524,524,524,524,524,524,524,524,524,524,524,524,524,524,524,524,524,524,524,524",",301,301,301,301,301,301,301,301,301,301,301,301,301,301,301,301,301,301,301,301,301,301,301,301,301,301,301,301,301,301,301,301,301,301,301,301,301,301,301,301,301,301,301,301,301,301,301,301,301,301,301,301,301,301,301,301,301,301,301,301,301,301,301,301,301,301,301,301,301,301,301,301,301,301,301,301,301,301,301,301,301,301,301,301,301,301,301,301,301,301,301,301,301,301,301,301,301,301,301,301,301,301,301,301,301,301,301,301","0,5,11,16,20,26,31,36,40,46,51,55,61,65,71,76,80,86,91,95,101,106,110,116,121,126,131,135,141,146,150,156,160,166,171,175,181,186,190,196,201,206,211,216,220,226,231,235,241,246,250,256,261,266,271,275,281,286,290,296,301,305,311,316,320,326,331,335,341,346,350,356,360,366,371,375,381,386,390,396,400,406,411,415,421,426,430,436,441,445,451,456,460,466,470,475,481,486,491,496,501,506,511,515,521,526,530,536,541","108","easy","","","","","",""
"","mousetracking","47","424835","0.0-4.0-3.5","89","","","","","<div style=""font-size:60px;"">+</div>","","","rt_catch","FIX",",524,524,524,524,524,524,524,524,524,524,524,524,524,524,524,524,524",",301,301,301,301,301,301,301,301,301,301,301,301,301,301,301,301,301","0,6,12,16,21,27,31,36,41,46,51,57,61,66,71,76,81,86","17","easy","","","","","",""
"","mousetracking","48","425150","0.0-4.0-4.5","314","","","","","<div style=""font-size:60px;"">+</div>","","","rt_window","HIT",",524,524,524,524,524,524,524,524,524,524,524,524,524,524,524,524,524,524,524,524,524,524,524,524,524,524,524,524,524,524,524,524,524,524,524,524,524,524,524,524,524,524,524,524,524,524,524,524,524,524,524,524,524,524,524,524,524,524,524,524,524,524",",301,301,301,301,301,301,301,301,301,301,301,301,301,301,301,301,301,301,301,301,301,301,301,301,301,301,301,301,301,301,301,301,301,301,301,301,301,301,301,301,301,301,301,301,301,301,301,301,301,301,301,301,301,301,301,301,301,301,301,301,301,301","0,6,11,16,20,26,30,36,41,46,51,56,61,66,72,76,81,86,91,96,101,106,112,116,121,126,131,136,141,146,152,156,161,166,171,176,181,186,192,196,201,207,211,216,221,226,232,236,241,246,251,256,260,266,271,275,281,286,291,295,301,306,311","62","easy","","","","","",""
"","mousetracking","49","425494","0.0-4.0-5.5","342","","","","","<div style=""font-size:60px;"">+</div>","","","decision","ACQUIRE_TARG",",,,,,,,467,467,467,467,467,467,467,467,467,467,467,467,467,467,467,467,467,467,467,467,467,467,467,467,467,467,467,467,467,467,467,467,467,467,467,467,467,467,467,467,467,467,467,467,467,467,467,467,467,467,467,467,467,467,467,467,467,467,467,467,367,367",",,,,,,,248,248,248,248,248,248,248,248,248,248,248,248,248,248,248,248,248,248,248,248,248,248,248,248,248,248,248,248,248,248,248,248,248,248,248,248,248,248,248,248,248,248,248,248,248,248,248,248,248,248,248,248,248,248,248,248,248,248,248,248,147,147","0,6,11,16,22,26,31,36,42,46,51,55,61,66,70,76,81,85,91,96,100,106,110,116,121,125,131,136,141,146,150,156,161,166,171,176,181,185,191,196,200,205,211,216,221,226,231,235,241,246,250,256,261,265,271,276,281,286,291,296,301,305,311,316,321,326,331,335,341","68","easy","","","","","",""
"","mousetracking","50","425771","0.0-4.0-6.5","277","","","","","<div style=""font-size:60px;"">+</div>","","","targer_hold","SUCCESS",",,,,,362,362,362,362,362,362,362,362,362,362,362,362,362,362,362,362,362,362,362,362,362,362,362,362,362,362,362,362,362,362,362,362,362,362,362,362,362,362,362,362,362,362,362,362,362,362,362,362,362,362,362",",,,,,143,143,143,143,143,143,143,143,143,143,143,143,143,143,143,143,143,143,143,143,143,143,143,143,143,143,143,143,143,143,143,143,143,143,143,143,143,143,143,143,143,143,143,143,143,143,143,143,143,143,143","0,7,11,17,22,26,31,36,41,46,51,56,62,66,71,76,81,86,92,96,101,106,111,117,121,126,131,137,141,146,152,156,161,167,171,177,182,186,191,197,201,206,211,216,221,226,231,237,241,246,251,256,261,266,271,277","55","","10","","","","",""
"","html-keyboard-response","51","426773","0.0-4.0-7.5","null","","","","","<p style=color:green;>SUCCESS! + 10 points</p> SCORE: 20, Trial number: 2","null","","feedback","","","","","","easy","10","220","50","626.7766952966368,103.22330470336314","SUCCESS!",""
"","mousetracking","52","427085","0.0-4.0-0.6","312","","","","","<div style=""font-size:60px;"">+</div>","","","ITI","FIX",",,515,515,515,515,515,515,515,515,515,515,515,515,515,515,515,515,515,515,515,515,515,515,515,515,515,515,515,515,515,515,515,515,515,515,515,515,515,515,515,515,515,515,515,515,515,515,515,515,515,515,515,515,515,515,515,515,515,515,515,515,515",",,302,302,302,302,302,302,302,302,302,302,302,302,302,302,302,302,302,302,302,302,302,302,302,302,302,302,302,302,302,302,302,302,302,302,302,302,302,302,302,302,302,302,302,302,302,302,302,302,302,302,302,302,302,302,302,302,302,302,302,302,302","0,6,11,16,21,26,30,36,41,46,51,56,61,66,70,76,81,85,91,96,100,106,110,116,121,126,131,136,141,146,150,156,161,167,171,176,180,186,191,196,201,206,210,216,221,227,231,236,241,246,251,256,261,265,271,276,282,286,291,296,301,306,310","62","easy","","","","","",""
"","mousetracking","53","427590","0.0-4.0-1.6","504","","","","","<div style=""font-size:60px;"">+</div>","","","fixation","FIX",",517,517,517,517,517,517,517,517,517,517,517,517,517,517,517,517,517,517,517,517,517,517,517,517,517,517,517,517,517,517,517,517,517,517,517,517,517,517,517,517,517,517,517,517,517,517,517,517,517,517,517,517,517,517,517,517,517,517,517,517,517,517,517,517,517,517,517,517,517,517,517,517,517,517,517,517,517,517,517,517,517,517,517,517,517,517,517,517,517,517,517,517,517,517,517,517,517,517,517,517",",303,303,303,303,303,303,303,303,303,303,303,303,303,303,303,303,303,303,303,303,303,303,303,303,303,303,303,303,303,303,303,303,303,303,303,303,303,303,303,303,303,303,303,303,303,303,303,303,303,303,303,303,303,303,303,303,303,303,303,303,303,303,303,303,303,303,303,303,303,303,303,303,303,303,303,303,303,303,303,303,303,303,303,303,303,303,303,303,303,303,303,303,303,303,303,303,303,303,303,303","0,5,11,16,20,26,30,36,41,45,51,56,60,66,71,76,81,85,91,96,100,106,111,115,121,125,131,136,140,146,151,155,161,166,171,176,181,186,191,195,201,205,211,215,221,226,231,235,241,245,251,256,260,266,271,275,280,286,291,296,301,306,311,315,320,326,331,335,341,345,351,356,360,366,371,375,381,385,391,396,400,406,410,415,421,425,431,435,441,446,451,456,460,466,471,475,481,486,491,496,500","100","easy","","","","","",""
"","mousetracking","54","428568","0.0-4.0-2.6","976","","","","","<div style=""font-size:60px;"">+</div>","","","delay","FIX",",529,529,529,529,529,529,529,529,529,529,529,529,529,529,529,529,529,529,529,529,529,529,529,529,529,529,529,529,529,529,529,529,529,529,529,529,529,529,529,529,529,529,529,529,529,529,529,529,529,529,529,529,529,529,529,529,529,529,529,529,529,529,529,529,529,529,529,529,529,529,529,529,529,529,529,529,529,529,529,529,529,529,529,529,529,529,529,529,529,529,529,529,529,529,529,529,529,529,529,529,529,529,529,529,529,529,529,529,529,529,529,529,529,529,529,529,529,529,529,529,529,529,529,529,529,529,529,529,529,529,529,529,529,529,529,529,529,529,529,529,529,529,529,529,529,529,529,529,529,529,529,529,529,529,529,529,529,529,529,529,529,529,529,529,529,529,529,529,529,529,529,529,529,529,529,529,529,529,529,529,529,529,529,529,529,529,529,529,529,529,529,529,529,529",",303,303,303,303,303,303,303,303,303,303,303,303,303,303,303,303,303,303,303,303,303,303,303,303,303,303,303,303,303,303,303,303,303,303,303,303,303,303,303,303,303,303,303,303,303,303,303,303,303,303,303,303,303,303,303,303,303,303,303,303,303,303,303,303,303,303,303,303,303,303,303,303,303,303,303,303,303,303,303,303,303,303,303,303,303,303,303,303,303,303,303,303,303,303,303,303,303,303,303,303,303,303,303,303,303,303,303,303,303,303,303,303,303,303,303,303,303,303,303,303,303,303,303,303,303,303,303,303,303,303,303,303,303,303,303,303,303,303,303,303,303,303,303,303,303,303,303,303,303,303,303,303,303,303,303,303,303,303,303,303,303,303,303,303,303,303,303,303,303,303,303,303,303,303,303,303,303,303,303,303,303,303,303,303,303,303,303,303,303,303,303,303,303,303","0,6,11,16,21,26,31,35,41,46,51,56,61,66,71,75,81,86,92,96,101,106,111,116,121,126,132,136,141,146,151,155,161,166,171,176,181,186,191,196,201,206,212,216,221,226,231,236,241,246,252,256,261,266,271,276,281,286,292,296,300,306,311,315,321,326,331,335,341,346,351,356,361,366,371,375,381,386,391,396,401,406,411,416,421,426,431,436,440,446,451,455,461,466,471,476,482,486,492,496,501,506,511,516,520,526,531,535,541,546,551,556,561,566,571,575,581,586,592,596,601,606,611,616,621,626,631,636,641,646,651,656,661,666,672,676,681,686,691,696,701,706,712,716,721,727,731,736,741,746,752,756,761,766,771,776,781,786,791,795,801,806,811,816,821,826,831,836,841,846,851,856,861,866,871,876,881,886,892,896,901,906,911,915,921,926,931,936,941,946,951,955,961,966,971","194","easy","","","","","",""
"","mousetracking","55","428656","0.0-4.0-3.6","87","","","","","<div style=""font-size:60px;"">+</div>","","","rt_catch","FIX",",529,529,529,529,529,529,529,529,529,529,529,529,529,529,529,529,529",",303,303,303,303,303,303,303,303,303,303,303,303,303,303,303,303,303","0,5,11,15,20,26,30,35,40,45,51,55,61,65,71,76,80,86","17","easy","","","","","",""
"","mousetracking","56","428950","0.0-4.0-4.6","293","","","","","<div style=""font-size:60px;"">+</div>","","","rt_window","HIT",",,529,529,529,529,529,529,529,529,529,529,529,529,529,529,529,529,529,529,529,529,529,529,529,529,529,529,529,529,529,529,529,529,529,529,529,529,529,529,529,529,529,529,529,529,529,529,529,529,529,529,529,529,529,529,529,529,529",",,303,303,303,303,303,303,303,303,303,303,303,303,303,303,303,303,303,303,303,303,303,303,303,303,303,303,303,303,303,303,303,303,303,303,303,303,303,303,303,303,303,303,303,303,303,303,303,303,303,303,303,303,303,303,303,303,303","0,6,11,16,21,26,30,36,41,46,51,55,61,66,70,76,80,86,91,95,101,106,110,116,121,125,131,136,140,146,151,156,161,166,171,176,180,186,191,196,201,206,210,216,221,226,231,236,241,246,251,256,261,266,270,276,281,286,291","58","easy","","","","","",""
"","mousetracking","57","429026","0.0-4.0-5.6","73","","","","","<div style=""font-size:60px;"">+</div>","","","decision","ACQUIRE_TARG",",,,,,,,626,626,626,626,626,626,650,650",",,,,,,,436,436,436,436,436,436,477,477","0,6,11,16,21,25,31,35,41,46,50,56,61,66,70","14","easy","","","","","",""
"","mousetracking","58","429304","0.0-4.0-6.6","277","","","","","<div style=""font-size:60px;"">+</div>","","","targer_hold","SUCCESS",",,,,,655,655,655,655,655,655,655,655,655,655,655,655,655,655,655,655,655,655,655,655,655,655,655,655,655,655,655,655,655,655,655,655,655,655,655,655,655,655,655,655,655,655,655,655,655,655,655,655,655,655,655",",,,,,487,487,487,487,487,487,487,487,487,487,487,487,487,487,487,487,487,487,487,487,487,487,487,487,487,487,487,487,487,487,487,487,487,487,487,487,487,487,487,487,487,487,487,487,487,487,487,487,487,487,487","0,5,11,16,20,26,31,36,41,46,50,56,61,65,71,76,80,86,91,95,101,106,110,116,120,125,131,136,140,146,150,156,161,165,171,176,180,186,191,195,201,206,210,216,221,225,231,236,240,246,251,255,261,266,270,276","55","","50","","","","",""
"","html-keyboard-response","59","430308","0.0-4.0-7.6","null","","","","","<p style=color:green;>SUCCESS! + 50 points</p> SCORE: 70, Trial number: 3","null","","feedback","","","","","","easy","50","200","100","273.22330470336317,456.77669529663683","SUCCESS!",""
"","mousetracking","60","430620","0.0-4.0-0.7","311","","","","","<div style=""font-size:60px;"">+</div>","","","ITI","FIX",",,531,531,531,531,531,531,531,531,531,531,531,531,531,531,531,531,531,531,531,531,531,531,531,531,531,531,531,531,531,531,531,531,531,531,531,531,531,531,531,531,531,531,531,531,531,531,531,531,531,531,531,531,531,531,531,531,531,531,531,531",",,303,303,303,303,303,303,303,303,303,303,303,303,303,303,303,303,303,303,303,303,303,303,303,303,303,303,303,303,303,303,303,303,303,303,303,303,303,303,303,303,303,303,303,303,303,303,303,303,303,303,303,303,303,303,303,303,303,303,303,303","0,6,11,16,21,26,31,36,41,46,51,56,61,66,71,76,81,86,91,96,101,106,111,116,121,127,131,136,141,146,151,156,161,167,171,176,182,186,191,196,201,206,211,216,220,226,231,235,241,246,251,256,261,266,271,276,281,286,290,296,301,306","61","easy","","","","","",""
"","mousetracking","61","431125","0.0-4.0-1.7","504","","","","","<div style=""font-size:60px;"">+</div>","","","fixation","FIX",",531,531,531,531,531,531,531,531,531,531,531,531,531,531,531,531,531,531,531,531,531,531,531,531,531,531,531,531,531,531,531,531,531,531,531,531,531,531,531,531,531,531,531,531,531,531,531,531,531,531,531,531,531,531,531,531,531,531,531,531,531,531,531,531,531,531,531,531,531,531,531,531,531,531,531,531,531,531,531,531,531,531,531,531,531,531,531,531,531,531,531,531,531,531,531,531,531,531,531,531",",303,303,303,303,303,303,303,303,303,303,303,303,303,303,303,303,303,303,303,303,303,303,303,303,303,303,303,303,303,303,303,303,303,303,303,303,303,303,303,303,303,303,303,303,303,303,303,303,303,303,303,303,303,303,303,303,303,303,303,303,303,303,303,303,303,303,303,303,303,303,303,303,303,303,303,303,303,303,303,303,303,303,303,303,303,303,303,303,303,303,303,303,303,303,303,303,303,303,303,303","0,6,11,16,21,26,31,35,41,46,51,56,61,66,72,76,81,87,91,96,101,106,112,116,121,126,131,136,141,146,152,156,161,167,171,176,181,186,192,196,201,207,211,216,221,226,232,236,241,247,251,256,262,266,271,275,281,286,291,296,302,306,312,316,321,327,331,336,342,346,351,355,361,366,371,376,381,386,391,395,401,406,411,416,421,426,432,436,441,447,451,456,462,466,471,476,481,486,491,496,501","100","easy","","","","","",""
"","mousetracking","62","432066","0.0-4.0-2.7","940","","","","","<div style=""font-size:60px;"">+</div>","","","delay","FIX",",531,531,531,531,531,531,531,531,531,531,531,531,531,531,531,531,531,531,531,531,531,531,531,531,531,531,531,531,531,531,531,531,531,531,531,531,531,531,531,531,531,531,531,531,531,531,531,531,531,531,531,531,531,531,531,531,531,531,531,531,531,531,531,531,531,531,531,531,531,531,531,531,531,531,531,531,531,531,531,531,531,531,531,531,531,531,531,531,531,531,531,531,531,531,531,531,531,531,531,531,531,531,531,531,531,531,531,531,531,531,531,531,531,531,531,531,531,531,531,531,531,531,531,531,531,531,531,531,531,531,531,531,531,531,531,531,531,531,531,531,531,531,531,531,531,531,531,531,531,531,531,531,531,531,531,531,531,531,531,531,531,531,531,531,531,531,531,531,531,531,531,531,531,531,531,531,531,531,531,531,531,531,531,531,531,531,531",",303,303,303,303,303,303,303,303,303,303,303,303,303,303,303,303,303,303,303,303,303,303,303,303,303,303,303,303,303,303,303,303,303,303,303,303,303,303,303,303,303,303,303,303,303,303,303,303,303,303,303,303,303,303,303,303,303,303,303,303,303,303,303,303,303,303,303,303,303,303,303,303,303,303,303,303,303,303,303,303,303,303,303,303,303,303,303,303,303,303,303,303,303,303,303,303,303,303,303,303,303,303,303,303,303,303,303,303,303,303,303,303,303,303,303,303,303,303,303,303,303,303,303,303,303,303,303,303,303,303,303,303,303,303,303,303,303,303,303,303,303,303,303,303,303,303,303,303,303,303,303,303,303,303,303,303,303,303,303,303,303,303,303,303,303,303,303,303,303,303,303,303,303,303,303,303,303,303,303,303,303,303,303,303,303,303,303","0,6,12,16,21,26,31,36,41,46,51,56,61,66,72,76,81,87,91,96,101,106,112,116,121,126,131,136,141,147,151,156,162,166,172,176,181,187,191,196,202,206,212,216,221,227,231,236,241,246,251,256,262,266,271,275,281,286,291,296,302,306,311,317,321,327,331,336,341,346,352,356,361,366,371,376,381,386,391,395,401,406,411,416,421,426,431,436,441,446,451,456,460,466,472,476,481,487,491,496,501,506,512,516,521,527,531,536,542,546,552,556,561,567,571,576,581,586,592,596,601,607,611,616,621,626,632,636,641,647,651,656,661,666,672,676,681,687,691,696,701,706,712,716,721,727,731,736,741,746,752,756,761,766,771,775,781,786,791,796,801,806,811,816,821,826,831,836,841,846,851,855,861,866,871,876,881,886,891,895,901,906,911,916,921,926,931,936","187","easy","","","","","",""
"","mousetracking","63","432134","0.0-4.0-3.7","66","","","","","<div style=""font-size:60px;"">+</div>","","","rt_catch","FS_CATCH",",531,531,531,531,531,531,531,531,531,531,531,531",",303,303,303,303,303,303,303,303,303,303,303,303","0,6,11,15,21,26,30,36,41,46,50,56,61","12","easy","","","","","",""
"","mousetracking","64","433316","0.0-4.0-4.7","1181","","","","","<div style=""font-size:60px;"">+</div>","","","rt_window","HIT",",,,,,,,466,466,466,466,466,466,466,466,466,466,466,466,466,466,466,466,466,466,466,466,356,356,356,356,356,356,356,356,356,356,356,356,356,356,356,356,356,356,356,356,356,356,356,356,356,356,356,356,356,356,356,356,356,356,356,356,356,356,356,356,356,356,356,356,356,356,356,356,356,356,356,356,356,356,356,356,356,356,356,356,356,356,356,356,356,356,356,356,356,356,356,356,356,356,356,356,356,356,356,356,356,356,356,356,356,356,356,356,356,356,356,356,356,356,356,356,356,356,356,356,356,356,356,356,356,356,356,356,356,356,356,356,356,356,356,356,356,356,356,356,356,356,356,356,356,356,356,356,356,356,356,356,356,356,356,356,356,356,356,356,356,356,356,356,356,356,356,356,356,356,356,356,356,356,356,356,356,356,356,356,356,356,356,356,356,356,356,356,356,356,356,356,356,356,356,356,356,356,356,356,356,356,356,356,356,356,356,356,356,356,356,356,356,356,356,356,435,435,435,435,435,435,435,522,522,522,522,522,522,522",",,,,,,,244,244,244,244,244,244,244,244,244,244,244,244,244,244,244,244,244,244,244,244,138,138,138,138,138,138,138,138,138,138,138,138,138,138,138,138,138,138,138,138,138,138,138,138,138,138,138,138,138,138,138,138,138,138,138,138,138,138,138,138,138,138,138,138,138,138,138,138,138,138,138,138,138,138,138,138,138,138,138,138,138,138,138,138,138,138,138,138,138,138,138,138,138,138,138,138,138,138,138,138,138,138,138,138,138,138,138,138,138,138,138,138,138,138,138,138,138,138,138,138,138,138,138,138,138,138,138,138,138,138,138,138,138,138,138,138,138,138,138,138,138,138,138,138,138,138,138,138,138,138,138,138,138,138,138,138,138,138,138,138,138,138,138,138,138,138,138,138,138,138,138,138,138,138,138,138,138,138,138,138,138,138,138,138,138,138,138,138,138,138,138,138,138,138,138,138,138,138,138,138,138,138,138,138,138,138,138,138,138,138,138,138,138,138,138,138,206,206,206,206,206,206,206,292,292,292,292,292,292,292","0,5,11,15,21,26,30,36,40,45,50,56,61,66,70,76,80,86,90,96,101,105,110,116,120,125,131,136,141,145,151,155,161,165,171,175,180,186,190,196,201,206,210,216,221,225,231,235,240,246,250,256,260,265,270,276,280,285,291,295,300,306,311,316,320,326,330,336,341,345,351,355,361,366,370,375,381,385,391,396,400,406,410,416,421,425,431,436,440,445,451,456,461,465,471,475,480,486,490,496,500,505,511,515,521,526,530,536,540,545,551,555,560,566,570,576,580,585,591,596,601,605,611,616,620,626,630,636,641,645,651,655,660,666,670,676,681,685,691,695,700,706,710,716,720,725,731,735,741,746,750,756,760,765,771,775,781,785,790,796,800,805,811,816,821,825,830,836,840,846,850,856,861,865,871,875,881,885,890,896,900,905,911,916,920,925,931,935,941,945,951,956,960,965,971,976,981,986,990,996,1001,1005,1011,1015,1021,1025,1030,1036,1040,1046,1050,1056,1061,1065,1071,1076,1080,1086,1090,1096,1101,1105,1111,1116,1121,1125,1131,1136,1140,1146,1150,1156,1160,1165,1171,1175,1180","236","easy","","","","","",""
"","mousetracking","65","433692","0.0-4.0-5.7","375","","","","","<div style=""font-size:60px;"">+</div>","","","decision","ACQUIRE_TARG",",,,,,,,578,578,578,578,578,578,578,578,578,578,578,578,578,578,578,578,578,578,578,578,578,578,578,578,578,578,578,578,578,578,578,578,578,578,578,578,578,578,578,578,578,578,578,578,578,578,578,578,578,578,578,578,578,578,578,578,578,578,578,578,578,578,578,578,578,578,578,369",",,,,,,,352,352,352,352,352,352,352,352,352,352,352,352,352,352,352,352,352,352,352,352,352,352,352,352,352,352,352,352,352,352,352,352,352,352,352,352,352,352,352,352,352,352,352,352,352,352,352,352,352,352,352,352,352,352,352,352,352,352,352,352,352,352,352,352,352,352,352,126","0,6,10,16,20,25,31,36,41,46,50,56,61,66,70,76,81,86,91,96,101,105,111,116,121,125,131,136,141,146,151,156,160,166,171,176,181,186,190,196,201,206,211,216,221,225,231,235,241,246,250,256,261,265,271,276,281,285,291,296,301,305,310,316,320,325,331,336,341,346,350,356,361,365,371","74","easy","","","","","",""
"","mousetracking","66","434050","0.0-4.0-6.7","null","","","","","<div style=""font-size:60px;"">+</div>","","","targer_hold","Timeout",",,,,,344,344,344,344,344,344,344,344,344,344,344,344,344,344,344,344,344,344,344,344,344,344,344,344,344,344,344,344,344,344,344,344,344,344,344,344,344,344,344,344,344,344,344,344,344,344,344,344,344,344,344,344,344,344,344,344,344,344,344,344,344,344,344,344,344,344,344",",,,,,101,101,101,101,101,101,101,101,101,101,101,101,101,101,101,101,101,101,101,101,101,101,101,101,101,101,101,101,101,101,101,101,101,101,101,101,101,101,101,101,101,101,101,101,101,101,101,101,101,101,101,101,101,101,101,101,101,101,101,101,101,101,101,101,101,101,101","0,6,10,16,20,25,31,35,40,46,50,56,60,65,70,76,80,86,90,95,100,105,110,116,120,126,130,136,140,145,151,155,160,165,170,176,180,185,190,196,201,205,210,215,220,226,230,236,240,245,250,255,261,265,270,276,280,285,291,295,301,305,310,316,320,326,330,336,340,345,351,355","71","","10","","","","",""
"","html-keyboard-response","67","435051","0.0-4.0-7.7","null","","","","","<p style=color:red;>FALSE START - 20 points</p> SCORE: 50, Trial number: 4","null","","feedback","","","","","","easy","10","200","50","626.7766952966368,103.22330470336314","FALSE START",""
"","mousetracking","68","435807","0.0-4.0-0.8","755","","","","","<div style=""font-size:60px;"">+</div>","","","ITI","FIX",",,,513,513,513,513,513,513,513,513,513,513,513,513,513,513,513,513,513,513,513,513,550,550,550,550,550,550,550,550,550,550,550,550,550,550,550,550,550,550,550,550,550,550,550,550,550,550,550,550,550,550,550,550,550,550,550,550,550,550,550,550,550,550,550,550,550,550,550,550,550,550,550,550,550,550,550,550,550,550,550,550,550,550,550,550,550,550,550,550,550,550,550,550,550,550,550,550,550,550,550,550,550,550,550,550,550,550,550,550,550,550,550,550,550,550,550,550,550,550,550,550,550,550,550,550,550,550,550,550,550,550,550,550,550,550,550,550,550,550,550,550,550,550,550,550,550,550,550,550",",,,298,298,298,298,298,298,298,298,298,298,298,298,298,298,298,298,298,298,298,298,314,314,314,314,314,314,314,314,314,314,314,314,314,314,314,314,314,314,314,314,314,314,314,314,314,314,314,314,314,314,314,314,314,314,314,314,314,314,314,314,314,314,314,314,314,314,314,314,314,314,314,314,314,314,314,314,314,314,314,314,314,314,314,314,314,314,314,312,312,312,312,312,312,312,312,312,312,312,312,312,312,312,312,312,312,312,312,312,312,312,312,312,312,312,312,312,312,312,312,312,312,312,312,312,312,312,312,312,312,312,312,312,312,312,312,312,312,312,312,312,312,312,312,312,312,312,312,312","0,6,12,17,21,26,31,36,41,46,51,56,62,66,71,76,81,86,91,96,101,106,110,117,121,127,131,136,142,146,151,156,161,167,171,176,182,186,191,196,201,206,212,216,221,227,231,236,241,246,251,256,262,266,271,276,281,287,291,296,301,306,312,316,321,327,331,336,342,346,352,356,361,367,371,376,382,387,391,396,401,407,411,416,421,426,432,436,441,446,451,456,461,467,471,476,481,486,491,496,502,506,511,516,521,526,531,536,541,547,551,556,561,566,571,576,581,587,591,596,602,606,611,616,621,627,631,636,641,647,651,656,662,666,671,677,681,686,691,696,701,706,711,716,721,727,731,736,742,746,751","150","easy","","","","","",""
"","mousetracking","69","436315","0.0-4.0-1.8","506","","","","","<div style=""font-size:60px;"">+</div>","","","fixation","FIX",",532,532,532,532,532,532,532,532,532,532,532,532,532,532,532,532,532,532,532,532,532,532,532,532,532,532,532,532,532,532,532,532,532,532,532,532,532,532,532,532,532,532,532,532,532,532,532,532,532,532,532,532,532,532,532,532,532,532,532,532,532,532,532,532,532,532,532,532,532,532,532,532,532,532,532,532,532,532,532,532,532,532,532,532,532,532,532,532,532,532,532,532,532,532,532,532,532,532,532,532,532",",306,306,306,306,306,306,306,306,306,306,306,306,306,306,306,306,306,306,306,306,306,306,306,306,306,306,306,306,306,306,306,306,306,306,306,306,306,306,306,306,306,306,306,306,306,306,306,306,306,306,306,306,306,306,306,306,306,306,306,306,306,306,306,306,306,306,306,306,306,306,306,306,306,306,306,306,306,306,306,306,306,306,306,306,306,306,306,306,306,306,306,306,306,306,306,306,306,306,306,306,306","0,5,11,15,21,25,31,35,40,46,50,55,60,66,71,75,80,85,91,96,100,106,110,115,121,125,131,136,140,146,151,155,161,165,170,176,180,186,190,195,201,205,211,216,220,226,230,235,241,245,251,256,260,266,271,275,281,285,291,296,300,306,310,315,321,325,331,336,340,346,350,355,361,365,371,376,380,386,391,395,400,406,410,415,421,425,431,436,440,446,451,455,461,465,471,476,480,486,490,495,501,505","101","easy","","","","","",""
"","mousetracking","70","437524","0.0-4.0-2.8","1208","","","","","<div style=""font-size:60px;"">+</div>","","","delay","FIX",",532,532,532,532,532,532,532,532,532,532,532,532,532,532,532,532,532,532,532,532,532,532,532,532,532,532,532,532,532,532,532,532,532,532,532,532,532,532,532,532,532,532,532,532,532,532,532,532,532,532,532,532,532,532,532,532,532,532,532,532,532,532,532,532,532,532,532,532,532,532,532,532,532,532,532,532,532,532,532,532,532,532,532,532,532,532,532,532,532,532,532,532,532,532,532,532,532,532,532,532,532,532,532,532,532,532,532,532,532,532,532,532,532,532,532,532,532,532,532,532,532,532,532,532,532,532,532,532,532,532,532,532,532,532,532,532,532,532,532,532,532,532,532,532,532,532,532,532,532,532,532,532,532,532,532,532,532,532,532,532,532,532,532,532,532,532,532,532,532,532,532,532,532,532,532,532,532,532,532,532,532,532,532,532,532,532,532,532,532,532,532,532,532,532,532,532,532,532,532,532,532,532,532,532,532,532,532,532,532,532,532,532,532,532,532,532,532,532,532,532,532,532,532,532,532,532,532,532,532,532,532,532,532,532,532,532,532,532,532,532,532",",306,306,306,306,306,306,306,306,306,306,306,306,306,306,306,306,306,306,306,306,306,306,306,306,306,306,306,306,306,306,306,306,306,306,306,306,306,306,306,306,306,306,306,306,306,306,306,306,306,306,306,306,306,306,306,306,306,306,306,306,306,306,306,306,306,306,306,306,306,306,306,306,306,306,306,306,306,306,306,306,306,306,306,306,306,306,306,306,306,306,306,306,306,306,306,306,306,306,306,306,306,306,306,306,306,306,306,306,306,306,306,306,306,306,306,306,306,306,306,306,306,306,306,306,306,306,306,306,306,306,306,306,306,306,306,306,306,306,306,306,306,306,306,306,306,306,306,306,306,306,306,306,306,306,306,306,306,306,306,306,306,306,306,306,306,306,306,306,306,306,306,306,306,306,306,306,306,306,306,306,306,306,306,306,306,306,306,306,306,306,306,306,306,306,306,306,306,306,306,306,306,306,306,306,306,306,306,306,306,306,306,306,306,306,306,306,306,306,306,306,306,306,306,306,306,306,306,306,306,306,306,306,306,306,306,306,306,306,306,306,306","0,5,11,15,20,26,31,35,41,45,51,56,60,66,71,75,81,86,91,96,100,106,111,115,121,126,131,136,140,146,151,155,161,166,171,176,180,186,191,195,201,205,211,216,220,226,231,235,241,245,251,255,260,266,271,275,281,286,291,296,300,306,311,315,321,326,331,336,340,346,351,355,360,366,371,376,381,386,391,395,401,406,411,416,421,426,431,435,441,446,451,456,461,466,471,475,481,486,491,496,501,506,511,516,520,526,530,535,541,545,551,556,560,566,571,575,581,585,591,596,600,606,611,615,621,625,631,636,640,646,651,655,661,665,671,676,680,686,691,695,701,705,711,716,720,726,730,736,741,745,751,756,760,766,771,775,781,785,791,796,800,806,811,815,821,826,831,836,840,846,851,855,861,866,871,876,880,886,891,895,901,906,911,916,921,926,931,935,941,946,951,956,960,966,971,975,981,985,991,996,1000,1006,1011,1015,1021,1026,1031,1036,1040,1046,1051,1055,1061,1066,1071,1076,1080,1086,1091,1095,1101,1106,1111,1116,1121,1126,1131,1136,1141,1146,1151,1156,1161,1165,1171,1176,1180,1186,1191,1195,1201,1205","241","easy","","","","","",""
"","mousetracking","71","437609","0.0-4.0-3.8","84","","","","","<div style=""font-size:60px;"">+</div>","","","rt_catch","FIX",",532,532,532,532,532,532,532,532,532,532,532,532,532,532,532,532",",306,306,306,306,306,306,306,306,306,306,306,306,306,306,306,306","0,6,11,16,20,26,31,36,42,46,52,56,61,67,71,76,82","16","easy","","","","","",""
"","mousetracking","72","437867","0.0-4.0-4.8","256","","","","","<div style=""font-size:60px;"">+</div>","","","rt_window","HIT",",,532,532,532,532,532,532,532,532,532,532,532,532,532,532,532,532,532,532,532,532,532,532,532,532,532,532,532,532,532,532,532,532,532,532,532,532,532,532,532,532,532,532,532,532,532,532,532,532,532,532",",,306,306,306,306,306,306,306,306,306,306,306,306,306,306,306,306,306,306,306,306,306,306,306,306,306,306,306,306,306,306,306,306,306,306,306,306,306,306,306,306,306,306,306,306,306,306,306,306,306,306","0,6,11,16,21,27,31,36,41,46,51,56,61,66,72,76,81,86,92,96,101,106,111,116,121,126,132,136,141,147,151,156,161,166,172,176,181,187,191,196,201,206,211,217,221,226,231,237,241,247,251,256","51","easy","","","","","",""
"","mousetracking","73","437942","0.0-4.0-5.8","74","","","","","<div style=""font-size:60px;"">+</div>","","","decision","ACQUIRE_TARG",",,,,,,,599,599,599,599,599,599,654,654",",,,,,,,231,231,231,231,231,231,177,177","0,5,10,15,21,25,30,35,40,46,50,56,60,66,70","14","easy","","","","","",""
"","mousetracking","74","438220","0.0-4.0-6.8","276","","","","","<div style=""font-size:60px;"">+</div>","","","targer_hold","SUCCESS",",,,,,684,684,684,684,684,684,684,684,684,684,684,684,684,684,684,684,684,684,684,684,684,684,684,684,684,684,684,684,684,684,684,684,684,684,684,684,684,684,684,684,684,684,684,684,684,684,684,684,684,684,684",",,,,,149,149,149,149,149,149,149,149,149,149,149,149,149,149,149,149,149,149,149,149,149,149,149,149,149,149,149,149,149,149,149,149,149,149,149,149,149,149,149,149,149,149,149,149,149,149,149,149,149,149,149","0,6,11,16,20,25,31,36,40,45,51,55,60,65,71,76,80,86,90,96,101,106,111,116,120,126,131,136,141,145,151,156,160,165,171,175,181,186,190,196,200,206,211,215,221,226,230,236,241,245,251,256,260,266,271,275","55","","20","","","","",""
"","html-keyboard-response","75","439224","0.0-4.0-7.8","null","","","","","<p style=color:green;>SUCCESS! + 20 points</p> SCORE: 70, Trial number: 5","null","","feedback","","","","","","easy","20","210","100","273.22330470336317,103.22330470336314","SUCCESS!",""
"","mousetracking","76","439533","0.0-4.0-0.9","307","","","","","<div style=""font-size:60px;"">+</div>","","","ITI","FIX",",526,526,526,526,526,526,526,526,526,526,526,526,526,526,526,526,526,526,526,526,526,526,526,526,526,526,526,526,526,526,526,526,526,526,526,526,526,526,526,526,526,526,526,526,526,526,526,526,526,526,526,526,526,526,526,526,526,526,526,526,526",",303,303,303,303,303,303,303,303,303,303,303,303,303,303,303,303,303,303,303,303,303,303,303,303,303,303,303,303,303,303,303,303,303,303,303,303,303,303,303,303,303,303,303,303,303,303,303,303,303,303,303,303,303,303,303,303,303,303,303,303,303","0,6,12,16,21,26,31,36,41,47,51,56,61,66,71,76,81,86,92,96,101,107,111,116,122,126,132,136,141,147,151,156,162,166,172,177,181,186,191,196,201,206,211,216,221,226,232,236,241,247,251,256,261,266,272,276,281,287,291,296,301,306","61","easy","","","","","",""
"","mousetracking","77","440041","0.0-4.0-1.9","507","","","","","<div style=""font-size:60px;"">+</div>","","","fixation","FIX",",526,526,526,526,526,526,526,526,526,526,526,526,526,526,526,526,526,526,526,526,526,526,526,526,526,526,526,526,526,526,526,526,526,526,526,526,526,526,526,526,526,526,526,526,526,526,526,526,526,526,526,526,526,526,526,526,526,526,526,526,526,526,526,526,526,526,526,526,526,526,526,526,526,526,526,526,526,526,526,526,526,526,526,526,526,526,526,526,526,526,526,526,526,526,526,526,526,526,526,526,526",",303,303,303,303,303,303,303,303,303,303,303,303,303,303,303,303,303,303,303,303,303,303,303,303,303,303,303,303,303,303,303,303,303,303,303,303,303,303,303,303,303,303,303,303,303,303,303,303,303,303,303,303,303,303,303,303,303,303,303,303,303,303,303,303,303,303,303,303,303,303,303,303,303,303,303,303,303,303,303,303,303,303,303,303,303,303,303,303,303,303,303,303,303,303,303,303,303,303,303,303,303","0,5,11,15,20,26,30,36,40,46,51,55,60,65,70,76,80,85,91,95,100,105,110,115,121,125,131,135,140,146,150,155,160,165,171,175,180,186,190,195,201,205,211,215,220,226,230,235,240,245,251,255,260,266,270,275,280,285,291,295,301,305,311,316,320,326,330,335,341,345,351,356,360,366,370,375,381,385,391,396,400,406,411,415,421,425,430,435,440,445,451,455,460,465,470,475,480,485,491,495,501,505","101","easy","","","","","",""
"","mousetracking","78","441159","0.0-4.0-2.9","1116","","","","","<div style=""font-size:60px;"">+</div>","","","delay","FIX",",526,526,526,526,526,526,526,526,526,526,526,526,526,526,526,526,526,526,526,526,526,526,526,526,526,526,526,526,526,526,526,526,526,526,526,526,526,526,526,526,526,526,526,526,526,526,526,526,526,526,526,526,526,526,526,526,526,526,526,526,526,526,526,526,526,526,526,526,526,526,526,526,526,526,526,526,526,526,526,526,526,526,526,526,526,526,526,526,526,526,526,526,526,526,526,526,526,526,526,526,526,526,526,526,526,526,526,526,526,526,526,526,526,526,526,526,526,526,526,526,526,526,526,526,526,526,526,526,526,526,526,526,526,526,526,526,526,526,526,526,526,526,526,526,526,526,526,526,526,526,526,526,526,526,526,526,526,526,526,526,526,526,526,526,526,526,526,526,526,526,526,526,526,526,526,526,526,526,526,526,526,526,526,526,526,526,526,526,526,526,526,526,526,526,526,526,526,526,526,526,526,526,526,526,526,526,526,526,526,526,526,526,526,526,526,526,526,526,526,526,526,526",",303,303,303,303,303,303,303,303,303,303,303,303,303,303,303,303,303,303,303,303,303,303,303,303,303,303,303,303,303,303,303,303,303,303,303,303,303,303,303,303,303,303,303,303,303,303,303,303,303,303,303,303,303,303,303,303,303,303,303,303,303,303,303,303,303,303,303,303,303,303,303,303,303,303,303,303,303,303,303,303,303,303,303,303,303,303,303,303,303,303,303,303,303,303,303,303,303,303,303,303,303,303,303,303,303,303,303,303,303,303,303,303,303,303,303,303,303,303,303,303,303,303,303,303,303,303,303,303,303,303,303,303,303,303,303,303,303,303,303,303,303,303,303,303,303,303,303,303,303,303,303,303,303,303,303,303,303,303,303,303,303,303,303,303,303,303,303,303,303,303,303,303,303,303,303,303,303,303,303,303,303,303,303,303,303,303,303,303,303,303,303,303,303,303,303,303,303,303,303,303,303,303,303,303,303,303,303,303,303,303,303,303,303,303,303,303,303,303,303,303,303,303","0,6,11,16,21,26,31,36,41,47,51,56,61,66,71,76,81,86,91,96,100,106,111,115,121,126,131,136,140,146,151,155,161,166,171,176,180,186,191,195,201,206,211,216,221,226,231,235,241,246,251,256,260,266,271,275,281,286,291,296,300,306,311,315,321,326,331,336,340,346,351,355,361,366,371,376,380,386,391,395,401,406,411,416,420,426,431,435,441,446,451,456,461,466,471,475,481,486,491,496,501,506,511,515,521,526,531,536,541,546,551,555,561,566,571,576,581,586,591,595,601,606,611,616,620,626,630,636,640,646,651,656,661,666,671,675,681,686,691,696,700,706,711,715,721,726,731,736,741,746,751,755,761,766,771,776,781,786,791,795,801,806,811,816,821,826,831,835,841,846,851,856,860,866,871,875,881,886,891,896,901,906,911,915,921,926,932,936,941,946,951,956,961,966,972,976,981,986,991,996,1000,1006,1011,1015,1021,1026,1031,1036,1040,1046,1051,1055,1061,1066,1071,1076,1081,1086,1091,1096,1100,1106,1111","222","easy","","","","","",""
"","mousetracking","79","441247","0.0-4.0-3.9","86","","","","","<div style=""font-size:60px;"">+</div>","","","rt_catch","FIX",",526,526,526,526,526,526,526,526,526,526,526,526,526,526,526,526,526",",303,303,303,303,303,303,303,303,303,303,303,303,303,303,303,303,303","0,5,11,15,20,26,30,35,41,45,51,56,60,66,70,75,81,85","17","easy","","","","","",""
"","mousetracking","80","441601","0.0-4.0-4.9","353","","","","","<div style=""font-size:60px;"">+</div>","","","rt_window","HIT",",526,526,526,526,526,526,526,526,526,526,526,526,526,526,526,526,526,526,526,526,526,526,526,526,526,526,526,526,526,526,526,526,526,526,526,526,526,526,526,526,526,526,526,526,526,526,526,526,526,526,526,526,526,526,526,526,526,526,526,526,526,526,526,526,526,526,526,526,526,526",",303,303,303,303,303,303,303,303,303,303,303,303,303,303,303,303,303,303,303,303,303,303,303,303,303,303,303,303,303,303,303,303,303,303,303,303,303,303,303,303,303,303,303,303,303,303,303,303,303,303,303,303,303,303,303,303,303,303,303,303,303,303,303,303,303,303,303,303,303,303","0,6,11,16,20,26,31,35,41,46,51,55,60,66,70,76,80,86,91,95,101,106,111,116,121,125,131,135,141,146,150,156,160,166,171,175,180,186,190,196,200,206,211,215,221,226,231,236,240,246,251,255,261,266,270,276,281,286,291,296,300,306,311,315,321,326,331,336,340,346,351","70","easy","","","","","",""
"","mousetracking","81","441711","0.0-4.0-5.9","109","","","","","<div style=""font-size:60px;"">+</div>","","","decision","ACQUIRE_TARG",",,,,,,,410,410,410,410,410,410,410,410,410,410,410,410,410,358,358",",,,,,,,409,409,409,409,409,409,409,409,409,409,409,409,409,463,463","0,6,10,16,20,26,31,36,41,45,51,55,61,66,70,76,80,85,91,96,100,105","21","easy","","","","","",""
"","mousetracking","82","441987","0.0-4.0-6.9","275","","","","","<div style=""font-size:60px;"">+</div>","","","targer_hold","SUCCESS",",,,,,355,355,355,355,355,355,355,355,355,355,355,355,355,355,355,355,355,355,355,355,355,355,355,355,355,355,355,355,355,355,355,355,355,355,355,355,355,355,355,355,355,355,355,355,355,355,355,355,355,355",",,,,,466,466,466,466,466,466,466,466,466,466,466,466,466,466,466,466,466,466,466,466,466,466,466,466,466,466,466,466,466,466,466,466,466,466,466,466,466,466,466,466,466,466,466,466,466,466,466,466,466,466","0,6,11,17,21,26,32,36,41,46,51,56,61,66,72,76,81,86,91,96,101,106,112,116,121,125,131,136,140,146,151,155,161,166,172,176,181,187,191,196,200,206,211,216,221,226,231,236,241,246,251,256,261,266,271","54","","10","","","","",""
"","html-keyboard-response","83","442992","0.0-4.0-7.9","null","","","","","<p style=color:green;>SUCCESS! + 10 points</p> SCORE: 80, Trial number: 6","null","","feedback","","","","","","easy","10","220","50","626.7766952966368,456.77669529663683","SUCCESS!",""
"","mousetracking","84","443297","0.0-4.0-0.10","304","","","","","<div style=""font-size:60px;"">+</div>","","","ITI","FIX",",525,525,525,525,525,525,525,525,525,525,525,525,525,525,525,525,525,525,525,525,525,525,525,525,525,525,525,525,525,525,525,525,525,525,525,525,525,525,525,525,525,525,525,525,525,525,525,525,525,525,525,525,525,525,525,525,525,525,525,525",",295,295,295,295,295,295,295,295,295,295,295,295,295,295,295,295,295,295,295,295,295,295,295,295,295,295,295,295,295,295,295,295,295,295,295,295,295,295,295,295,295,295,295,295,295,295,295,295,295,295,295,295,295,295,295,295,295,295,295,295","0,6,11,15,21,26,30,36,41,46,51,55,61,66,70,76,81,86,91,95,101,106,111,115,121,126,130,136,141,146,151,156,161,166,171,175,181,185,191,196,200,206,211,215,221,226,230,236,241,246,251,256,261,266,270,275,281,285,291,296,300","60","easy","","","","","",""
"","mousetracking","85","443805","0.0-4.0-1.10","507","","","","","<div style=""font-size:60px;"">+</div>","","","fixation","FIX",",525,525,525,525,525,525,525,525,525,525,525,525,525,525,525,525,525,525,525,525,525,525,525,525,525,525,525,525,525,525,525,525,525,525,525,525,525,525,525,525,525,525,525,525,525,525,525,525,525,525,525,525,525,525,525,525,525,525,525,525,525,525,525,525,525,525,525,525,525,525,525,525,525,525,525,525,525,525,525,525,525,525,525,525,525,525,525,525,525,525,525,525,525,525,525,525,525,525,525,525,525",",295,295,295,295,295,295,295,295,295,295,295,295,295,295,295,295,295,295,295,295,295,295,295,295,295,295,295,295,295,295,295,295,295,295,295,295,295,295,295,295,295,295,295,295,295,295,295,295,295,295,295,295,295,295,295,295,295,295,295,295,295,295,295,295,295,295,295,295,295,295,295,295,295,295,295,295,295,295,295,295,295,295,295,295,295,295,295,295,295,295,295,295,295,295,295,295,295,295,295,295,295","0,5,11,16,21,26,31,35,41,46,51,56,60,66,71,75,81,87,91,96,101,106,111,116,120,126,131,135,141,146,152,156,161,167,171,176,181,186,192,196,201,207,211,216,221,226,232,236,241,247,251,256,261,266,271,276,280,286,291,295,301,306,311,316,320,326,331,335,341,346,351,356,361,366,371,375,381,386,391,396,401,406,412,416,421,426,431,436,441,446,451,455,461,465,471,476,481,486,491,495,501,506","101","easy","","","","","",""
"","mousetracking","86","444371","0.0-4.0-2.10","564","","","","","<div style=""font-size:60px;"">+</div>","","","delay","FIX",",525,525,525,525,525,525,525,525,525,525,525,525,525,525,525,525,525,525,525,525,525,525,525,525,525,525,525,525,525,525,525,525,525,525,525,525,525,525,525,525,525,525,525,525,525,525,525,525,525,525,525,525,525,525,525,525,525,525,525,525,525,525,525,525,525,525,525,525,525,525,525,525,525,525,525,525,525,525,525,525,525,525,525,525,525,525,525,525,525,525,525,525,525,525,525,525,525,525,525,525,525,525,525,525,525,525,525,525,525,525,525,525",",295,295,295,295,295,295,295,295,295,295,295,295,295,295,295,295,295,295,295,295,295,295,295,295,295,295,295,295,295,295,295,295,295,295,295,295,295,295,295,295,295,295,295,295,295,295,295,295,295,295,295,295,295,295,295,295,295,295,295,295,295,295,295,295,295,295,295,295,295,295,295,295,295,295,295,295,295,295,295,295,295,295,295,295,295,295,295,295,295,295,295,295,295,295,295,295,295,295,295,295,295,295,295,295,295,295,295,295,295,295,295,295","0,6,11,15,21,26,31,36,41,46,51,55,61,66,71,76,81,86,91,96,101,106,111,116,121,125,131,136,140,146,151,155,161,166,171,176,180,186,191,195,201,206,212,216,221,226,231,236,240,246,251,256,261,266,271,276,280,286,291,295,301,306,311,316,321,326,331,335,341,346,351,356,361,366,371,376,381,386,391,396,401,406,411,416,420,426,431,436,441,445,451,456,460,466,471,476,481,486,491,496,500,506,511,515,521,525,531,536,540,546,550,556,561","112","easy","","","","","",""
"","mousetracking","87","444458","0.0-4.0-3.10","86","","","","","<div style=""font-size:60px;"">+</div>","","","rt_catch","FIX",",525,525,525,525,525,525,525,525,525,525,525,525,525,525,525,525,525",",295,295,295,295,295,295,295,295,295,295,295,295,295,295,295,295,295","0,6,11,15,21,26,31,36,41,46,52,56,61,67,71,76,80,86","17","easy","","","","","",""
"","mousetracking","88","444840","0.0-4.0-4.10","380","","","","","<div style=""font-size:60px;"">+</div>","","","rt_window","MISSED",",,525,525,525,525,525,525,525,525,525,525,525,525,525,525,525,525,525,525,525,525,525,525,525,525,525,525,525,525,525,525,525,525,525,525,525,525,525,525,525,525,525,525,525,525,525,525,525,525,525,525,525,525,525,525,525,525,525,525,525,525,525,525,525,525,525,525,525,525,525,525,525,525,525,525,525",",,295,295,295,295,295,295,295,295,295,295,295,295,295,295,295,295,295,295,295,295,295,295,295,295,295,295,295,295,295,295,295,295,295,295,295,295,295,295,295,295,295,295,295,295,295,295,295,295,295,295,295,295,295,295,295,295,295,295,295,295,295,295,295,295,295,295,295,295,295,295,295,295,295,295,295","0,5,10,15,20,25,31,35,40,45,50,56,60,65,71,75,80,85,90,96,100,105,111,115,120,126,130,135,141,145,150,156,160,165,171,175,180,186,190,195,200,205,211,215,220,226,230,235,240,245,251,255,260,266,270,275,281,285,290,296,300,305,310,315,321,325,330,336,340,345,351,355,361,365,370,376,380","76","easy","","","","","",""
"","mousetracking","89","444943","0.0-4.0-5.10","101","","","","","<div style=""font-size:60px;"">+</div>","","","decision","ACQUIRE_TARG",",,,,,578,578,578,578,578,578,578,578,578,578,578,578,578,578,709,709",",,,,,244,244,244,244,244,244,244,244,244,244,244,244,244,244,129,129","0,5,11,16,20,26,31,35,40,46,50,56,61,65,71,76,80,85,91,95,100","20","easy","","","","","",""
"","mousetracking","90","445299","0.0-4.0-6.10","null","","","","","<div style=""font-size:60px;"">+</div>","","","targer_hold","Timeout",",,,,,733,733,733,733,733,733,733,733,733,733,733,733,733,733,733,733,733,733,733,733,733,733,733,733,733,733,733,733,733,733,733,733,733,733,733,733,733,733,733,733,733,733,733,733,733,733,733,733,733,733,733,733,733,733,733,733,733,733,733,733,733,733,733,733,733,733,733",",,,,,109,109,109,109,109,109,109,109,109,109,109,109,109,109,109,109,109,109,109,109,109,109,109,109,109,109,109,109,109,109,109,109,109,109,109,109,109,109,109,109,109,109,109,109,109,109,109,109,109,109,109,109,109,109,109,109,109,109,109,109,109,109,109,109,109,109,109","0,7,11,17,21,25,31,37,41,46,52,56,61,67,71,77,81,86,91,96,101,106,112,116,121,126,131,137,141,146,152,156,161,166,171,177,181,186,191,196,201,206,211,217,221,226,232,236,241,246,251,257,261,266,271,276,281,286,291,297,301,306,311,316,320,325,331,336,341,346,351,356","71","","10","","","","",""
"","html-keyboard-response","91","446300","0.0-4.0-7.10","null","","","","","<p style=color:red;>TOO SLOW - 20 points</p> SCORE: 60, Trial number: 7","null","","feedback","","","","","","easy","10","230","50","273.22330470336317,103.22330470336314","MISSED",""
"","mousetracking","92","446609","0.0-4.0-0.11","307","","","","","<div style=""font-size:60px;"">+</div>","","","ITI","FIX",",530,530,530,530,530,530,530,530,530,530,530,530,530,530,530,530,530,530,530,530,530,530,530,530,530,530,530,530,530,530,530,530,530,530,530,530,530,530,530,530,530,530,530,530,530,530,530,530,530,530,530,530,530,530,530,530,530,530,530,530,530",",290,290,290,290,290,290,290,290,290,290,290,290,290,290,290,290,290,290,290,290,290,290,290,290,290,290,290,290,290,290,290,290,290,290,290,290,290,290,290,290,290,290,290,290,290,290,290,290,290,290,290,290,290,290,290,290,290,290,290,290,290","0,6,11,16,21,27,31,36,41,46,51,57,61,66,71,76,81,86,91,96,101,107,111,116,121,126,131,135,141,146,151,156,161,167,171,176,181,186,191,196,201,207,211,216,222,226,231,236,241,247,251,256,261,266,271,275,281,286,291,296,302,306","61","easy","","","","","",""
"","mousetracking","93","447118","0.0-4.0-1.11","508","","","","","<div style=""font-size:60px;"">+</div>","","","fixation","FIX",",530,530,530,530,530,530,530,530,530,530,530,530,530,530,530,530,530,530,530,530,530,530,530,530,530,530,530,530,530,530,530,530,530,530,530,530,530,530,530,530,530,530,530,530,530,530,530,530,530,530,530,530,530,530,530,530,530,530,530,530,530,530,530,530,530,530,530,530,530,530,530,530,530,530,530,530,530,530,530,530,530,530,530,530,530,530,530,530,530,530,530,530,530,530,530,530,530,530,530,530,530",",290,290,290,290,290,290,290,290,290,290,290,290,290,290,290,290,290,290,290,290,290,290,290,290,290,290,290,290,290,290,290,290,290,290,290,290,290,290,290,290,290,290,290,290,290,290,290,290,290,290,290,290,290,290,290,290,290,290,290,290,290,290,290,290,290,290,290,290,290,290,290,290,290,290,290,290,290,290,290,290,290,290,290,290,290,290,290,290,290,290,290,290,290,290,290,290,290,290,290,290,290","0,5,11,15,21,26,31,36,40,46,51,55,61,65,71,76,80,86,90,95,101,106,111,115,121,126,131,136,140,146,151,155,161,166,171,176,181,185,191,195,201,205,211,216,220,226,230,235,240,246,251,255,261,265,271,276,280,286,291,295,301,305,311,316,320,326,331,335,341,345,351,356,360,366,371,375,381,385,391,396,400,406,411,415,421,425,431,436,440,446,450,455,461,465,471,476,480,486,490,495,501,505","101","easy","","","","","",""
"","mousetracking","94","447831","0.0-4.0-2.11","712","","","","","<div style=""font-size:60px;"">+</div>","","","delay","FIX",",530,530,530,530,530,530,530,530,530,530,530,530,530,530,530,530,530,530,530,530,530,530,530,530,530,530,530,530,530,530,530,530,530,530,530,530,530,530,530,530,530,530,530,530,530,530,530,530,530,530,530,530,530,530,530,530,530,530,530,530,530,530,530,530,530,530,530,530,530,530,530,530,530,530,530,530,530,530,530,530,530,530,530,530,530,530,530,530,530,530,530,530,530,530,530,530,530,530,530,530,530,530,530,530,530,530,530,530,530,530,530,530,530,530,530,530,530,530,530,530,530,530,530,530,530,530,530,530,530,530,530,530,530,530,530,530,530,530,530,530,530,530",",290,290,290,290,290,290,290,290,290,290,290,290,290,290,290,290,290,290,290,290,290,290,290,290,290,290,290,290,290,290,290,290,290,290,290,290,290,290,290,290,290,290,290,290,290,290,290,290,290,290,290,290,290,290,290,290,290,290,290,290,290,290,290,290,290,290,290,290,290,290,290,290,290,290,290,290,290,290,290,290,290,290,290,290,290,290,290,290,290,290,290,290,290,290,290,290,290,290,290,290,290,290,290,290,290,290,290,290,290,290,290,290,290,290,290,290,290,290,290,290,290,290,290,290,290,290,290,290,290,290,290,290,290,290,290,290,290,290,290,290,290,290","0,6,11,16,20,26,31,36,41,47,51,56,61,66,72,76,80,86,92,96,101,107,111,116,121,126,132,136,141,147,151,156,161,166,171,176,180,186,191,195,201,206,211,216,221,226,231,235,241,246,251,256,260,266,271,275,281,286,291,296,300,306,311,315,321,326,331,336,341,346,351,356,361,366,371,376,380,386,392,396,401,407,411,416,421,426,432,436,441,446,451,456,461,466,472,476,481,486,491,496,501,506,512,516,521,526,531,535,541,546,551,555,561,566,571,576,581,586,591,595,601,606,611,616,621,626,631,635,641,646,651,656,661,666,672,676,681,686,691,696,701,706,712","142","easy","","","","","",""
"","mousetracking","95","447919","0.0-4.0-3.11","86","","","","","<div style=""font-size:60px;"">+</div>","","","rt_catch","FIX",",530,530,530,530,530,530,530,530,530,530,530,530,530,530,530,530,530",",290,290,290,290,290,290,290,290,290,290,290,290,290,290,290,290,290","0,5,11,16,21,27,31,36,41,46,51,55,61,66,71,76,81,86","17","easy","","","","","",""
"","mousetracking","96","448234","0.0-4.0-4.11","314","","","","","<div style=""font-size:60px;"">+</div>","","","rt_window","HIT",",530,530,530,530,530,530,530,530,530,530,530,530,530,530,530,530,530,530,530,530,530,530,530,530,530,530,530,530,530,530,530,530,530,530,530,530,530,530,530,530,530,530,530,530,530,530,530,530,530,530,530,530,530,530,530,530,530,530,530,530,530,530",",290,290,290,290,290,290,290,290,290,290,290,290,290,290,290,290,290,290,290,290,290,290,290,290,290,290,290,290,290,290,290,290,290,290,290,290,290,290,290,290,290,290,290,290,290,290,290,290,290,290,290,290,290,290,290,290,290,290,290,290,290,290","1,6,12,16,21,26,31,36,41,47,51,56,62,66,72,76,81,87,91,96,101,106,112,116,121,127,131,136,142,146,152,156,161,167,171,176,182,186,192,197,201,207,211,216,222,226,231,236,241,246,252,256,261,266,272,276,281,287,291,296,301,306,311","62","easy","","","","","",""
"","mousetracking","97","448635","0.0-4.0-5.11","null","","","","","<div style=""font-size:60px;"">+</div>","","","decision","WRONG_TARG",",,,,,,,424,424,424,424,424,424,424,424,424,424,424,424,424,424,424,424,424,424,424,424,424,424,424,424,424,424,424,424,424,424,424,424,424,424,424,424,424,424,424,424,424,424,424,424,424,424,424,424,424,424,424,424,424,424,424,424,424,424,424,424,424,424,424,424,424,424,424,424,424,424,424,424,424,424",",,,,,,,372,372,372,372,372,372,372,372,372,372,372,372,372,372,372,372,372,372,372,372,372,372,372,372,372,372,372,372,372,372,372,372,372,372,372,372,372,372,372,372,372,372,372,372,372,372,372,372,372,372,372,372,372,372,372,372,372,372,372,372,372,372,372,372,372,372,372,372,372,372,372,372,372,372","0,6,12,16,22,26,31,36,41,46,51,57,61,65,71,76,81,85,91,96,101,106,112,116,122,126,131,136,141,145,151,156,161,166,172,176,182,186,191,197,201,206,212,216,222,226,231,237,241,246,251,256,262,266,271,277,281,286,291,296,302,306,311,317,321,326,331,336,342,346,351,356,361,366,371,376,381,386,391,396,401","80","easy","","","","","",""
"","mousetracking","98","448994","0.0-4.0-6.11","null","","","","","<div style=""font-size:60px;"">+</div>","","","targer_hold","Timeout",",322,322,322,322,322,322,322,322,322,322,322,322,322,322,322,322,322,322,322,322,322,322,322,322,322,322,322,322,322,322,322,322,322,322,322,322,322,322,322,322,322,322,322,322,322,322,322,322,322,322,322,322,322,322,322,322,322,322,322,322,322,322,322,322,322,322,322,322,322,322,322",",471,471,471,471,471,471,471,471,471,471,471,471,471,471,471,471,471,471,471,471,471,471,471,471,471,471,471,471,471,471,471,471,471,471,471,471,471,471,471,471,471,471,471,471,471,471,471,471,471,471,471,471,471,471,471,471,471,471,471,471,471,471,471,471,471,471,471,471,471,471,471","0,6,11,16,21,26,31,36,41,46,52,56,61,66,71,76,81,86,91,96,101,106,111,116,122,126,132,136,141,146,151,157,161,166,171,176,181,186,191,197,201,206,212,216,221,226,232,236,241,246,251,257,261,266,271,276,281,286,291,296,301,307,311,317,320,326,331,336,341,346,351,356","71","","10","","","","",""
"","html-keyboard-response","99","449995","0.0-4.0-7.11","null","","","","","<p style=color:red;>REACH ERROR - 20 points</p> SCORE: 40, Trial number: 8","null","","feedback","","","","","","easy","10","200","50","626.7766952966368,456.77669529663683","REACH ERROR",""
"","mousetracking","100","450304","0.0-4.0-0.12","307","","","","","<div style=""font-size:60px;"">+</div>","","","ITI","FIX",",540,540,540,540,540,540,540,540,540,540,540,540,540,540,540,540,540,540,540,540,540,540,540,540,540,540,540,540,540,540,540,540,540,540,540,540,540,540,540,540,540,540,540,540,540,540,540,540,540,540,540,540,540,540,540,540,540,540,540,540,540",",290,290,290,290,290,290,290,290,290,290,290,290,290,290,290,290,290,290,290,290,290,290,290,290,290,290,290,290,290,290,290,290,290,290,290,290,290,290,290,290,290,290,290,290,290,290,290,290,290,290,290,290,290,290,290,290,290,290,290,290,290","0,6,10,15,20,26,31,35,41,46,50,56,60,66,71,75,80,86,90,96,100,106,111,115,120,126,130,135,141,145,150,155,161,166,170,176,180,186,190,196,201,205,211,215,220,226,230,236,240,245,251,255,260,266,271,275,280,286,290,296,300,305","61","easy","","","","","",""
"","mousetracking","101","450824","0.0-4.0-1.12","518","","","","","<div style=""font-size:60px;"">+</div>","","","fixation","FIX",",,,537,537,537,537,537,537,537,537,537,537,537,537,537,537,537,537,537,537,537,537,537,537,537,537,537,537,537,537,537,537,537,537,537,537,537,537,537,537,537,537,537,537,537,537,537,537,537,537,537,537,537,537,537,537,537,537,537,537,537,537,537,537,537,537,537,537,537,537,537,537,537,537,537,537,537,537,537,537,537,537,537,537,537,537,537,537,537,537,537,537,537,537,537,537,537,537,537,537,537,537,537",",,,290,290,290,290,290,290,290,290,290,290,290,290,290,290,290,290,290,290,290,290,290,290,290,290,290,290,290,290,290,290,290,290,290,290,290,290,290,290,290,290,290,290,290,290,290,290,290,290,290,290,290,290,290,290,290,290,290,290,290,290,290,290,290,290,290,290,290,290,290,290,290,290,290,290,290,290,290,290,290,290,290,290,290,290,290,290,290,290,290,290,290,290,290,290,290,290,290,290,290,290,290","0,5,11,15,21,25,30,36,40,46,50,55,61,66,70,75,80,85,91,95,100,106,110,115,121,125,130,135,140,146,150,155,161,165,170,176,180,185,191,195,200,206,210,215,221,225,230,236,240,246,250,255,261,265,270,276,280,285,291,295,300,306,310,315,321,326,330,335,340,345,351,355,360,365,370,376,380,385,391,395,400,406,410,415,421,425,430,436,440,446,450,455,460,465,470,476,480,485,491,495,500,506,510,515","103","easy","","","","","",""
"","mousetracking","102","451525","0.0-4.0-2.12","699","","","","","<div style=""font-size:60px;"">+</div>","","","delay","FIX",",537,537,537,537,537,537,537,537,537,537,537,537,537,537,537,537,537,537,537,537,537,537,537,537,537,537,537,537,537,537,537,537,537,537,537,537,537,537,537,537,537,537,537,537,537,537,537,537,537,537,537,537,537,537,537,537,537,537,537,537,537,537,537,537,537,537,537,537,537,537,537,537,537,537,537,537,537,537,537,537,537,537,537,537,537,537,537,537,537,537,537,537,537,537,537,537,537,537,537,537,537,537,537,537,537,537,537,537,537,537,537,537,537,537,537,537,537,537,537,537,537,537,537,537,537,537,537,537,537,537,537,537,537,537,537,537,537,537,537",",291,291,291,291,291,291,291,291,291,291,291,291,291,291,291,291,291,291,291,291,291,291,291,291,291,291,291,291,291,291,291,291,291,291,291,291,291,291,291,291,291,291,291,291,291,291,291,291,291,291,291,291,291,291,291,291,291,291,291,291,291,291,291,291,291,291,291,291,291,291,291,291,291,291,291,291,291,291,291,291,291,291,291,291,291,291,291,291,291,291,291,291,291,291,291,291,291,291,291,291,291,291,291,291,291,291,291,291,291,291,291,291,291,291,291,291,291,291,291,291,291,291,291,291,291,291,291,291,291,291,291,291,291,291,291,291,291,291,291","0,5,11,15,21,26,30,35,41,45,51,56,60,66,70,75,81,85,91,96,100,106,111,115,121,125,131,135,141,146,151,156,160,166,171,175,181,186,191,196,200,206,211,215,221,225,231,236,240,246,251,255,261,265,271,276,280,286,291,295,301,305,311,316,320,326,331,335,341,345,351,356,360,366,371,375,381,385,391,396,400,406,411,415,421,426,431,436,440,446,451,455,461,466,471,476,481,485,491,495,500,506,510,516,521,525,531,535,540,546,550,555,561,565,571,576,580,586,590,595,601,605,611,616,620,626,630,635,641,645,651,656,660,666,670,675,681,685,691,696","139","easy","","","","","",""
"","mousetracking","103","451610","0.0-4.0-3.12","84","","","","","<div style=""font-size:60px;"">+</div>","","","rt_catch","FIX",",537,537,537,537,537,537,537,537,537,537,537,537,537,537,537,537",",291,291,291,291,291,291,291,291,291,291,291,291,291,291,291,291","0,5,11,15,20,26,30,35,40,46,50,55,61,65,71,76,80","16","easy","","","","","",""
"","mousetracking","104","451967","0.0-4.0-4.12","355","","","","","<div style=""font-size:60px;"">+</div>","","","rt_window","HIT",",537,537,537,537,537,537,537,537,537,537,537,537,537,537,537,537,537,537,537,537,537,537,537,537,537,537,537,537,537,537,537,537,537,537,537,537,537,537,537,537,537,537,537,537,537,537,537,537,537,537,537,537,537,537,537,537,537,537,537,537,537,537,537,537,537,537,537,537,537,537",",291,291,291,291,291,291,291,291,291,291,291,291,291,291,291,291,291,291,291,291,291,291,291,291,291,291,291,291,291,291,291,291,291,291,291,291,291,291,291,291,291,291,291,291,291,291,291,291,291,291,291,291,291,291,291,291,291,291,291,291,291,291,291,291,291,291,291,291,291,291","0,6,10,16,21,26,31,35,41,46,51,56,61,66,71,76,80,86,91,95,101,106,111,116,121,126,131,135,141,146,151,156,161,166,171,176,181,186,191,196,201,206,211,216,221,226,232,236,241,247,251,256,260,266,271,275,281,286,291,296,301,306,311,316,321,325,331,335,341,347,351","70","easy","","","","","",""
